ox,oy,oz,ow,ax,ay,az,lx,ly,lz
-0.06041932,0.05046213,0.07762308,0.99387014,-0.00039947,0.00292948,0.00039947,-0.01112825,-0.01133364,0.10184714
-0.06105637,0.05039319,0.08117503,0.99355084,-0.00013316,0.00319579,0.0,-0.01148923,-0.01158882,0.10212722
-0.06045746,0.05029101,0.08082048,0.99362153,-0.00026632,0.0015979,0.00013316,-0.01147056,-0.01152035,0.10230149
-0.05927876,0.05030091,0.0771087,0.99398702,0.00119842,0.00146474,0.00013316,-0.01135231,-0.01158259,0.10206498
-0.05939052,0.05040741,0.07589129,0.99406868,0.00146474,0.0015979,0.0,-0.01113447,-0.01147056,0.10177868
-0.06010234,0.05053246,0.07815197,0.99384427,-0.00039947,0.00359527,0.00013316,-0.01150168,-0.01157637,0.10164176
-0.06029955,0.05053623,0.07902854,0.99376279,-0.00013316,0.00186421,0.00133158,-0.01120916,-0.01150791,0.102121
-0.05954252,0.05045983,0.07610316,0.99404073,0.00013316,0.00199737,0.00066579,-0.01106601,-0.01152658,0.10202141
-0.05916088,0.05058329,0.07437747,0.99418777,0.0,0.00239685,0.00026632,-0.01133986,-0.01151413,0.10233883
-0.05935455,0.05039781,0.07480821,0.99415332,-0.00026632,0.00346211,0.0,-0.0111158,-0.01137721,0.10163553
-0.05964487,0.05037483,0.07501841,0.99412125,-0.00106526,0.00426106,0.00039947,-0.01109713,-0.01143322,0.10188448
-0.06007756,0.05026931,0.07597046,0.99402833,-0.00013316,0.00292948,-0.00119842,-0.01141455,-0.0115328,0.1018347
-0.06017091,0.05021539,0.07681538,0.99396038,0.0,0.00239685,-0.00079895,-0.01119049,-0.01138343,0.10189693
-0.06025514,0.05019493,0.07763222,0.99389291,-0.00079895,0.00199737,-0.00106526,-0.01114692,-0.01141455,0.10211477
-0.06045529,0.05035356,0.07836374,0.9938153,0.00039947,0.00372843,0.00239685,-0.01138343,-0.01156392,0.10185959
-0.06082182,0.05007935,0.080691,0.99362051,0.00253,0.0015979,-0.00066579,-0.01115937,-0.0115328,0.10177868
-0.06147201,0.04986725,0.0850173,0.9932304,0.00093211,0.00359527,0.00093211,-0.01137098,-0.01152658,0.10237617
-0.06136234,0.04977798,0.08660886,0.9931041,-0.0015979,0.00399474,0.00026632,-0.01115937,-0.01151413,0.10199652
-0.05939067,0.05005222,0.08061907,0.99371427,0.00133158,0.00079895,0.00106526,-0.0112465,-0.01157637,0.10225792
-0.05876692,0.0502382,0.07736488,0.99400061,-0.00053263,0.00319579,0.00053263,-0.01128385,-0.01147056,0.10192183
-0.05852677,0.05036967,0.07474955,0.99420822,0.00226369,0.00213053,0.00093211,-0.01137721,-0.01157014,0.10194051
-0.05891018,0.05068108,0.07326028,0.99428064,0.00106526,0.00239685,0.00093211,-0.0114021,-0.01158882,0.10204008
-0.06041914,0.05065146,0.07629585,0.99396324,0.0,0.00292948,-0.00026632,-0.011427,-0.01163861,0.10189071
-0.0610426,0.05050393,0.07929323,0.993698,-0.00039947,0.00226369,0.00093211,-0.01136476,-0.0112465,0.10185959
-0.06011615,0.05057014,0.07800189,0.99385339,0.00039947,0.00133158,-0.00066579,-0.01135853,-0.01167595,0.10221435
-0.05938939,0.05075072,0.07506467,0.99411404,-0.00039947,0.00106526,-0.00079895,-0.01110958,-0.01127762,0.10170399
-0.05938621,0.05069801,0.07447092,0.99416155,0.00026632,0.00213053,0.00026632,-0.01146434,-0.01150168,0.10208365
-0.0598918,0.05061436,0.07583417,0.99403238,-0.00079895,0.00199737,0.00093211,-0.01137098,-0.01133364,0.10195295
-0.05984628,0.05082649,0.07640698,0.99398047,-0.00013316,0.00173105,-0.00066579,-0.01138965,-0.01148301,0.10227659
-0.05942673,0.0508345,0.07493625,0.99411714,-0.00066579,0.00106526,0.00026632,-0.01137721,-0.01147679,0.10227659
-0.05942152,0.05076484,0.0741267,0.99418175,0.00026632,0.00173105,0.00106526,-0.0112465,-0.01173196,0.10222057
-0.06000302,0.05079523,0.07613453,0.99399346,0.00066579,0.00199737,0.00013316,-0.01121539,-0.01149546,0.10228281
-0.06034133,0.0505933,0.07716914,0.99390358,0.0,0.00119842,-0.00079895,-0.01122783,-0.01158259,0.10193428
-0.06133879,0.05053117,0.08051602,0.9935801,-0.00093211,0.00332895,-0.00093211,-0.01132741,-0.01158259,0.10178491
-0.06150853,0.05035588,0.0831634,0.99336046,0.00106526,0.0041279,-0.00013316,-0.01122783,-0.01135231,0.10195295
-0.061032,0.05039316,0.08402585,0.99331528,-0.00026632,0.00306264,-0.00093211,-0.01132741,-0.01124028,0.10187204
-0.06077829,0.05043115,0.08426028,0.99330908,-0.00079895,0.00279632,-0.00093211,-0.01132741,-0.01157014,0.10195295
-0.0604319,0.05040275,0.08393024,0.99335968,-0.00079895,0.00332895,0.0,-0.01133364,-0.01165728,0.10185337
-0.0602191,0.05007294,0.08332344,0.99344033,0.00026632,0.00173105,-0.00106526,-0.01122161,-0.01138343,0.10193428
-0.05988754,0.05014029,0.0828837,0.99349368,0.00079895,0.00013316,-0.00106526,-0.01146434,-0.01162616,0.10205875
-0.05988918,0.05033105,0.08227206,0.9935348,0.00239685,0.00346211,-0.0015979,-0.01160126,-0.01150791,0.10227659
-0.05997134,0.05042868,0.08176794,0.99356663,-0.00026632,0.00346211,0.0015979,-0.01140832,-0.01159504,0.10189693
-0.05949014,0.05026769,0.08006872,0.99374205,0.0,0.00173105,0.00053263,-0.01105356,-0.01151413,0.10197785
-0.05961896,0.05018903,0.07911371,0.99381477,-0.00026632,0.00359527,0.00146474,-0.01123406,-0.01155147,0.1020712
-0.05995159,0.05046508,0.07918433,0.99377507,-0.00079895,0.00239685,-0.00066579,-0.01161993,-0.01152035,0.10181603
-0.06014032,0.05062612,0.07918838,0.99375516,-0.00079895,0.00119842,-0.00213053,-0.01130874,-0.01175686,0.10189693
-0.06013407,0.05058138,0.07917076,0.99375933,-0.00026632,0.00119842,0.00053263,-0.01145189,-0.01147679,0.10191561
-0.06005865,0.05043172,0.07918148,0.9937706,-0.00026632,0.00239685,0.0015979,-0.01115937,-0.01164483,0.1015484
-0.05977645,0.05056623,0.07762511,0.99390352,-0.00053263,0.00346211,0.00079895,-0.01128385,-0.01146434,0.10222057
-0.05936487,0.05057468,0.07549282,0.99409193,-0.00173105,0.00173105,0.00053263,-0.01109091,-0.01156392,0.10208365
-0.05954067,0.05055825,0.07494326,0.99412388,-0.00013316,0.00292948,-0.00066579,-0.01130874,-0.01151413,0.10214589
-0.05997137,0.05067386,0.07616686,0.99399918,-0.00186421,0.00346211,0.00013316,-0.01117804,-0.01152035,0.10187204
-0.06025838,0.05066247,0.07684867,0.99392986,-0.00053263,0.00119842,0.00053263,-0.01113447,-0.01146434,0.1022019
-0.06041965,0.05060373,0.07760104,0.9938646,-0.00106526,0.00253,0.00173105,-0.01119049,-0.01145189,0.10178491
-0.06039806,0.05049843,0.07804171,0.99383676,-0.00079895,0.00332895,0.0,-0.01123406,-0.01134609,0.10160442
-0.06136671,0.05018659,0.08205742,0.99346972,-0.00053263,0.00199737,0.0,-0.01160749,-0.01170707,0.10203386
-0.06142975,0.05018245,0.08446948,0.9932639,0.00026632,0.00239685,0.00039947,-0.01125895,-0.01130874,0.10205253
-0.06107837,0.05018751,0.08354142,0.99336374,-0.00093211,0.00199737,-0.00026632,-0.01127762,-0.01141455,0.10174134
-0.06059073,0.05023931,0.0821534,0.99350685,-0.0015979,0.00199737,0.00079895,-0.01133364,-0.01156392,0.10173512
-0.06078393,0.05001865,0.082997,0.99343592,-0.00066579,0.00266316,-0.00026632,-0.01114692,-0.01148301,0.10167287
-0.06115413,0.04990206,0.0847895,0.99326771,-0.00013316,0.00146474,-0.00026632,-0.01125895,-0.01172574,0.10202763
-0.06084539,0.04964443,0.08511285,0.99327201,0.0,0.00213053,-0.00106526,-0.01099133,-0.0115577,0.10232016
-0.06025598,0.04957942,0.08371221,0.99343014,0.00026632,0.00186421,0.00013316,-0.01134609,-0.01178175,0.10205875
-0.05995095,0.04970778,0.08269311,0.99352753,-0.00079895,0.0015979,-0.00013316,-0.01125895,-0.01162616,0.10197785
-0.05922562,0.04981755,0.0798376,0.99379909,0.00066579,0.00292948,0.00013316,-0.0111158,-0.01128385,0.10169777
-0.05915132,0.05009582,0.07811549,0.99392641,-0.00079895,0.00292948,0.0015979,-0.01119671,-0.01157014,0.10208987
-0.05873521,0.05027473,0.0753419,0.99415606,0.00066579,0.00452737,0.00199737,-0.01141455,-0.01149546,0.1020712
-0.05875033,0.05061575,0.07369234,0.9942615,-0.00146474,0.00346211,0.0,-0.01132119,-0.01143322,0.10172267
-0.05950316,0.05066814,0.07511114,0.9941079,0.00066579,0.00239685,-0.00053263,-0.01137721,-0.01170707,0.10206498
-0.06008464,0.05070581,0.07679512,0.99394226,0.00013316,0.00173105,0.00119842,-0.01125895,-0.0114021,0.10227036
-0.06034395,0.05057762,0.07917098,0.99374676,-0.00026632,0.00106526,-0.00079895,-0.01141455,-0.01135853,0.10217079
-0.0609625,0.05042198,0.08187921,0.99349743,0.00026632,0.00133158,0.00066579,-0.01129629,-0.01158259,0.10219568
-0.06043169,0.05025479,0.08190516,0.99353617,-0.00053263,0.00093211,0.00053263,-0.01135231,-0.01150791,0.10224547
-0.05927958,0.05037049,0.07866226,0.99386168,-0.00026632,0.00266316,-0.00066579,-0.01135853,-0.01152658,0.10186581
-0.05912679,0.05037125,0.0769095,0.99400795,0.0,0.00213053,-0.00133158,-0.01118426,-0.01125273,0.10227036
-0.05944256,0.05056114,0.07664047,0.99400026,0.0,0.00106526,-0.00079895,-0.01099755,-0.01146434,0.10186581
-0.05969862,0.05066242,0.07647061,0.99399281,-0.00039947,0.00199737,0.0,-0.01135853,-0.01135231,0.10205875
-0.06065904,0.05042844,0.08064278,0.99361676,0.00133158,0.00332895,0.00079895,-0.01137098,-0.01137098,0.10199652
-0.06122309,0.05006233,0.08284618,0.99341941,-0.00133158,0.0015979,0.00093211,-0.01087307,-0.01132741,0.10180358
-0.06111537,0.05014074,0.08338907,0.99337673,-0.00066579,0.00399474,0.00106526,-0.01161993,-0.01153903,0.10158575
-0.06088039,0.05019627,0.08348782,0.99338001,0.00093211,0.0015979,-0.00013316,-0.01143944,-0.01175064,0.10211477
-0.06001572,0.05010397,0.08171539,0.99358463,-0.00119842,0.00346211,0.00239685,-0.01140832,-0.01146434,0.10194673
-0.05961357,0.05043308,0.07936384,0.99378282,0.00039947,0.00213053,-0.00066579,-0.01137098,-0.01144567,0.10220813
-0.05964842,0.0503586,0.07873382,0.9938345,0.00199737,0.00066579,0.00053263,-0.01127762,-0.0115328,0.10202763
-0.05998544,0.0504913,0.07937928,0.99375623,0.00013316,0.00306264,0.00079895,-0.01125273,-0.01135231,0.10185959
-0.06015808,0.05067009,0.07938062,0.99373651,0.00053263,0.00292948,-0.00119842,-0.01148301,-0.01163238,0.10205253
-0.0597854,0.0507452,0.07767987,0.99388957,-0.00039947,0.00266316,0.00026632,-0.01158259,-0.01173196,0.10189693
-0.05963114,0.05060046,0.07670729,0.99398184,0.00079895,0.00359527,-0.00199737,-0.01136476,-0.01174441,0.10177868
-0.06061516,0.05029765,0.08026247,0.99365687,-0.00119842,0.00253,-0.00106526,-0.01132741,-0.011427,0.10190316
-0.06062383,0.05042089,0.0823107,0.99348253,0.00133158,0.00133158,0.00053263,-0.01148923,-0.01139588,0.10201519
-0.0599627,0.05062644,0.08067551,0.99364626,-0.00013316,0.00199737,0.00186421,-0.01144567,-0.01165728,0.10185959
-0.0596344,0.05067724,0.07882599,0.99381191,-0.00119842,0.00306264,0.00026632,-0.0114021,-0.01141455,0.10217079
-0.05871139,0.05082324,0.07454839,0.99418944,0.00026632,0.00359527,0.00039947,-0.01132119,-0.01180043,0.10248198
-0.05804168,0.05099145,0.06977174,0.99456674,0.00026632,0.00452737,-0.00013316,-0.0112714,-0.01174441,0.10201519
-0.05890595,0.05110972,0.06936482,0.99453831,-0.00079895,0.00106526,0.0,-0.01133986,-0.01169462,0.10213967
-0.06022859,0.05104202,0.07268321,0.99422562,-0.00053263,0.00186421,-0.00013316,-0.01157637,-0.01150168,0.10211477
-0.06036269,0.05085588,0.07407261,0.99412441,0.00053263,0.00319579,-0.00053263,-0.01130252,-0.01152035,0.1023575
-0.05988877,0.05099425,0.07261216,0.99425375,0.00066579,0.00226369,-0.00079895,-0.01165728,-0.01181288,0.10182847
-0.05992676,0.0510304,0.07178131,0.9943099,-0.00026632,0.00439422,-0.00013316,-0.01146434,-0.01164483,0.10161064
-0.06058935,0.05097309,0.0744875,0.99407357,0.00013316,0.00319579,0.0,-0.0112465,-0.01153903,0.10167287
-0.06079178,0.05061649,0.07610992,0.99395651,0.00039947,0.00266316,-0.00039947,-0.01121539,-0.01158882,0.10201519
-0.06152729,0.05049991,0.07959793,0.993644,-0.00079895,0.00239685,0.00173105,-0.0111158,-0.01158882,0.10187204
-0.06169491,0.05029405,0.0821898,0.99343306,0.00053263,0.00146474,0.00013316,-0.01140832,-0.01159504,0.10178491
-0.06158081,0.05036649,0.08317956,0.99335402,-0.00079895,0.00079895,-0.00106526,-0.01146434,-0.01174441,0.1019654
-0.06125852,0.0503836,0.08358546,0.99333906,0.00013316,0.00106526,0.00066579,-0.0115577,-0.01177553,0.10174134
-0.06084251,0.05035911,0.08316649,0.99340093,-0.00146474,0.0015979,0.00013316,-0.01150791,-0.01172574,0.10215834
-0.06038485,0.05047817,0.08221969,0.99350166,-0.00039947,0.00239685,0.00039947,-0.01135231,-0.01153903,0.10195918
-0.06014404,0.05051849,0.08081629,0.99362946,0.00013316,-0.00013316,0.00106526,-0.01136476,-0.01168217,0.10210855
-0.05949222,0.0507173,0.07696803,0.99396402,-0.00133158,0.00079895,0.00146474,-0.01125895,-0.01173819,0.10215834
-0.05913027,0.0508255,0.07480722,0.99414498,-0.00066579,0.00199737,-0.00079895,-0.0111407,-0.01126518,0.10176624
-0.05844766,0.05096903,0.07065207,0.99448192,-0.00039947,0.00213053,-0.00079895,-0.01139588,-0.01157014,0.10177868
-0.05843404,0.05096463,0.06824992,0.99465078,0.0,0.00119842,0.00093211,-0.01112825,-0.01159504,0.10203386
-0.06019671,0.05070709,0.07302432,0.9942196,-0.00066579,0.00093211,-0.00053263,-0.01137721,-0.01140832,0.10180358
-0.06058002,0.05066559,0.07578692,0.99399167,0.0,0.00266316,-0.00026632,-0.01115315,-0.01143944,0.10192806
-0.06089373,0.05056897,0.07819311,0.99379104,0.00066579,0.0015979,-0.00026632,-0.01120294,-0.01175064,0.10253799
-0.06104611,0.05061592,0.07984938,0.99364763,-0.00066579,0.00253,0.00026632,-0.01150791,-0.01152035,0.10200896
-0.06088118,0.05044654,0.08099432,0.99357367,-0.00079895,0.00253,0.00013316,-0.01134609,-0.0114021,0.10206498
-0.0607099,0.05036807,0.08176412,0.99352503,0.0,0.00332895,0.00106526,-0.01105979,-0.01129007,0.10177246
-0.06100044,0.05045687,0.082426,0.99344808,-0.00213053,0.00253,0.00066579,-0.01147679,-0.01145811,0.10217079
-0.06084882,0.0504746,0.08336737,0.99337792,0.00013316,0.0,-0.00053263,-0.01130874,-0.01146434,0.10194673
-0.06067149,0.05041576,0.08351075,0.99337971,-0.00039947,0.00239685,-0.00066579,-0.0111407,-0.01135853,0.10194051
-0.05930723,0.05027332,0.07989521,0.99376661,0.00013316,0.00306264,0.00079895,-0.01132119,-0.01143944,0.10174134
-0.05925423,0.05076313,0.0778786,0.99390489,0.00066579,0.00292948,0.00093211,-0.011427,-0.0116884,0.10208987
-0.05961383,0.05056072,0.0779077,0.99389148,-0.00039947,0.00066579,0.00039947,-0.01130252,-0.01148923,0.10220813
-0.05964516,0.05040134,0.0779203,0.99389672,-0.00093211,0.00146474,-0.00066579,-0.01133986,-0.01115315,0.10199029
-0.05939238,0.05050269,0.07656547,0.99401194,0.00013316,0.00239685,-0.00039947,-0.01126518,-0.01128385,0.10162309
-0.05931038,0.0505385,0.07565406,0.99408484,-0.00039947,0.00213053,0.00079895,-0.01120916,-0.0112714,0.10200274
-0.05996789,0.05060286,0.07667203,0.99396408,0.00039947,0.00213053,0.00106526,-0.01125273,-0.01127762,0.10232638
-0.06037782,0.05057884,0.07782984,0.99385059,0.00026632,0.00213053,-0.00066579,-0.01157637,-0.01156392,0.10204631
-0.06074576,0.05060227,0.07930057,0.99371064,0.0,0.00292948,-0.00026632,-0.01140832,-0.01176931,0.10214589
-0.06082816,0.05055187,0.08077461,0.99358946,0.00066579,0.00146474,-0.00013316,-0.01109091,-0.01143944,0.10192806
-0.06072552,0.05034528,0.08115301,0.99357533,-0.00146474,0.00253,0.00013316,-0.01130874,-0.01138965,0.10200274
-0.06038757,0.05031376,0.0807997,0.99362636,-0.00119842,0.00173105,0.00053263,-0.01112825,-0.01145811,0.10169777
-0.06023199,0.05040182,0.0804332,0.99366111,0.00146474,0.00173105,0.0,-0.0112465,-0.01157014,0.10195295
-0.05995652,0.05053266,0.07931544,0.99376094,-0.00093211,0.00173105,-0.00026632,-0.01173819,-0.01185022,0.10185959
-0.05973872,0.050505,0.07867257,0.99382657,-0.00053263,0.00319579,0.00039947,-0.011427,-0.01146434,0.10195918
-0.06053915,0.05058283,0.08080623,0.99360293,0.00186421,0.00426106,-0.00066579,-0.01131497,-0.01166973,0.10204631
-0.06073677,0.05045505,0.08199732,0.99349982,0.00039947,0.00173105,-0.00013316,-0.01146434,-0.01148301,0.10228904
-0.06128815,0.05023918,0.08442781,0.99327326,0.00013316,0.00186421,-0.0015979,-0.01115937,-0.01153903,0.1018347
-0.06134826,0.0501055,0.08630489,0.99311501,0.00079895,0.00199737,-0.00026632,-0.0111407,-0.01151413,0.10153595
-0.06021402,0.05016888,0.08406446,0.99337333,-0.00013316,0.00346211,0.00013316,-0.01147056,-0.01186889,0.10230771
-0.05961916,0.05036722,0.08111116,0.99364471,0.00133158,0.00133158,0.00053263,-0.01138343,-0.01165105,0.10214589
-0.05993132,0.05032052,0.08118981,0.99362177,0.00013316,0.00173105,0.0,-0.01133986,-0.0115577,0.10229526
-0.06040294,0.05010424,0.08299813,0.99345481,0.00053263,0.00213053,0.00039947,-0.01115315,-0.01157637,0.10192183
-0.06052144,0.05030939,0.08381971,0.99336827,0.00039947,0.00239685,0.00066579,-0.01138965,-0.01138343,0.10222057
-0.0603159,0.05016631,0.08352068,0.99341309,0.00039947,0.00386158,-0.00079895,-0.01117804,-0.01142077,0.10204631
-0.06043097,0.05028614,0.08333902,0.99341542,0.00079895,0.00319579,0.00079895,-0.01129007,-0.01139588,0.10208365
-0.06002301,0.05021678,0.08207701,0.99354863,-0.00039947,0.00186421,0.00133158,-0.01133364,-0.01150168,0.10235128
-0.06005149,0.05036067,0.08136474,0.99359822,-0.00066579,0.00253,-0.00053263,-0.0112714,-0.01158259,0.10214589
-0.05832763,0.05054988,0.07506275,0.99418718,0.00079895,0.00292948,0.00039947,-0.01135853,-0.01134609,0.10155462
-0.05785361,0.05077667,0.07047058,0.99453944,-0.00119842,0.00239685,-0.00093211,-0.01113447,-0.01142077,0.10172889
-0.05982767,0.05078382,0.07378458,0.99418187,0.00026632,0.00306264,0.00106526,-0.01135853,-0.01175686,0.10208987
-0.06067635,0.05060266,0.07759973,0.99384916,-0.00066579,0.00186421,0.00119842,-0.01134609,-0.01133364,0.10199652
-0.06178105,0.05031835,0.08263303,0.99338961,-0.00066579,0.00013316,0.00066579,-0.01115315,-0.01150791,0.10203386
-0.0624246,0.05027317,0.08697143,0.99298126,-0.00053263,0.00279632,-0.00133158,-0.01126518,-0.01167595,0.10190938
-0.06133772,0.05021354,0.0869955,0.99304992,0.00079895,0.00133158,0.00039947,-0.01127762,-0.0112714,0.10213344
-0.05996593,0.05028519,0.08355998,0.99342507,0.00026632,0.00253,0.00133158,-0.01131497,-0.0114021,0.1019654
-0.05962536,0.05026252,0.08191165,0.99358386,-0.00013316,0.00346211,0.00053263,-0.01121539,-0.01141455,0.10229526
-0.05965897,0.05020092,0.08180397,0.99359387,0.00013316,0.00319579,-0.00292948,-0.01131497,-0.01155147,0.10189693
-0.05998274,0.05011252,0.08170591,0.9935869,0.00026632,0.00332895,0.00173105,-0.01115315,-0.01137098,0.10163553
-0.05979477,0.05011156,0.08007859,0.9937309,-0.00093211,0.00213053,0.00026632,-0.01132741,-0.01157637,0.10180358
-0.05987883,0.05025327,0.07910079,0.99379694,0.00026632,0.00039947,0.00093211,-0.01136476,-0.01149546,0.10178491
-0.06025072,0.05037338,0.07958031,0.99373007,0.00013316,0.00253,0.00079895,-0.01133364,-0.01177553,0.10184092
-0.06064144,0.05055012,0.08006368,0.99365842,0.00013316,0.00399474,0.00079895,-0.01144567,-0.01165105,0.10179113
-0.06069716,0.05046386,0.08113925,0.99357224,0.00026632,0.00133158,0.00026632,-0.01126518,-0.01137721,0.10215212
-0.06074744,0.0503504,0.08220342,0.99348736,-0.00079895,0.00372843,-0.00066579,-0.01120916,-0.01141455,0.10204008
-0.06069945,0.0504239,0.08212432,0.99349326,-0.00093211,0.00266316,0.00053263,-0.01150791,-0.01180665,0.10203386
-0.060412,0.0503829,0.08108907,0.99359781,0.00026632,0.00359527,0.00053263,-0.01115315,-0.01152658,0.10179735
-0.0604211,0.05040313,0.08087747,0.99361348,0.0,0.00253,0.00106526,-0.01137098,-0.01161371,0.10230771
-0.06059463,0.05032734,0.08216695,0.99350095,0.00066579,0.00213053,-0.00053263,-0.01136476,-0.01156392,0.10193428
-0.06061679,0.0504895,0.08293757,0.99342734,0.00066579,0.00253,0.00066579,-0.01138965,-0.01138965,0.10188448
-0.06062515,0.05060866,0.08256592,0.99345177,0.00119842,0.00239685,-0.00026632,-0.01138965,-0.01168217,0.10218323
-0.06056155,0.05062374,0.08234925,0.99347275,-0.00146474,0.00119842,0.0,-0.01144567,-0.01174441,0.10197785
-0.06057736,0.05050955,0.08293214,0.99342918,0.00053263,0.00306264,0.00079895,-0.01136476,-0.0115328,0.10205253
-0.06060182,0.0504602,0.08344904,0.99338681,0.00186421,0.00253,0.00093211,-0.01143322,-0.01173196,0.10187204
-0.06043984,0.05042794,0.08389287,0.993361,0.00133158,0.00066579,0.0,-0.01144567,-0.01141455,0.10197785
-0.06039158,0.05039458,0.08421607,0.99333823,0.00013316,0.00266316,0.00079895,-0.01147056,-0.01143322,0.10164798
-0.06053828,0.05021993,0.0849028,0.99327976,0.0,0.00119842,0.0,-0.01126518,-0.0112714,0.10181603
-0.06059457,0.05017514,0.08605579,0.99317932,0.00039947,0.00213053,0.00039947,-0.01143944,-0.01151413,0.10184714
-0.06060345,0.05027181,0.08625301,0.99315685,-0.00013316,0.00332895,0.00079895,-0.01129007,-0.01153903,0.10227036
-0.06021072,0.05014848,0.08455963,0.99333256,-0.00026632,0.00239685,-0.00079895,-0.01139588,-0.01154525,0.10169155
-0.05997577,0.05021201,0.08359232,0.99342543,0.00013316,0.0015979,0.00133158,-0.0111407,-0.01158882,0.10180358
-0.06080993,0.05003086,0.08518467,0.99324858,-0.00253,0.00106526,-0.00093211,-0.01153903,-0.01180665,0.10187204
-0.06097896,0.04995467,0.0861228,0.99316108,-0.00066579,0.00213053,0.00026632,-0.01126518,-0.01161371,0.10192183
-0.06018374,0.05050342,0.08324095,0.99342752,-0.00133158,0.00226369,0.0,-0.01158882,-0.01152035,0.10158575
-0.05967943,0.05046941,0.08080706,0.99366069,-0.00146474,0.00106526,0.00039947,-0.01146434,-0.01167595,0.10192806
-0.05994212,0.05048523,0.08021373,0.99369204,0.00119842,0.00053263,0.00079895,-0.0115328,-0.0117942,0.10223924
-0.05998344,0.05050857,0.08042634,0.99367124,-0.00079895,-0.00013316,0.00119842,-0.01146434,-0.01171952,0.10185959
-0.05923366,0.05042322,0.07762591,0.99394327,-0.0015979,0.00053263,0.00079895,-0.01113447,-0.01149546,0.1023575
-0.05827283,0.05089105,0.07206486,0.9943949,-0.00119842,0.00079895,0.00093211,-0.01125895,-0.0114021,0.10167287
-0.05885038,0.05101412,0.07081731,0.99444413,0.00066579,0.00146474,0.00066579,-0.01132741,-0.01180043,0.10210855
-0.06106107,0.05066887,0.0775697,0.99382454,-0.00093211,0.00292948,-0.00013316,-0.01147056,-0.01148923,0.10187826
-0.06154007,0.05046666,0.08152012,0.99348903,-0.00106526,0.00319579,0.00039947,-0.01127762,-0.01162616,0.10195295
-0.05970794,0.05079471,0.07596255,0.99402446,0.00053263,0.00213053,0.00053263,-0.01171329,-0.01169462,0.10176624
-0.05902585,0.05100949,0.07270256,0.99429798,-0.00106526,0.00173105,-0.00013316,-0.01131497,-0.01156392,0.10208987
-0.06043673,0.05098159,0.07596972,0.99397027,0.00039947,0.00239685,0.0,-0.0115328,-0.01165728,0.10154217
-0.06116448,0.05076824,0.07897408,0.99370253,0.00026632,0.00106526,0.00199737,-0.011427,-0.01176308,0.10176001
-0.06225768,0.0506222,0.08329459,0.99328923,0.00053263,0.00213053,0.00199737,-0.01136476,-0.01157637,0.10192806
-0.06251632,0.05039941,0.08747509,0.99292493,-0.00026632,0.00213053,0.00066579,-0.01150791,-0.01145189,0.10188448
-0.06164818,0.05034069,0.08743463,0.99298567,-0.00013316,0.00106526,-0.00079895,-0.0115577,-0.01163861,0.1019654
-0.06050193,0.05046479,0.08366241,0.99337482,0.00013316,0.00266316,0.00039947,-0.0114021,-0.01153903,0.10206498
-0.05979971,0.05054168,0.08123606,0.99361479,-0.00106526,0.00173105,-0.00053263,-0.01133364,-0.01146434,0.10195295
-0.05906488,0.0508576,0.07709441,0.99397248,-0.00079895,0.00213053,0.0015979,-0.01139588,-0.01153903,0.10172267
-0.05888721,0.05087892,0.0747633,0.99416006,-0.00133158,0.00399474,0.00133158,-0.01113447,-0.01129007,0.10179735
-0.06043331,0.05082566,0.07901803,0.99374074,-0.00013316,0.00319579,-0.00093211,-0.01118426,-0.01131497,0.10174756
-0.06117745,0.05063364,0.08135356,0.99351662,0.00239685,0.00133158,0.00053263,-0.01156392,-0.01177553,0.10205875
-0.05940796,0.05070761,0.07660174,0.99399781,0.00106526,0.00266316,0.00066579,-0.01130874,-0.01165728,0.1018347
-0.05850628,0.05100587,0.07237733,0.99435252,-0.00106526,0.00279632,0.00106526,-0.01141455,-0.01163861,0.10181603
-0.05935177,0.0508744,0.07312871,0.99425417,0.00066579,0.00146474,0.00026632,-0.01158882,-0.01184399,0.10194673
-0.06027658,0.05087265,0.07579865,0.99399871,0.00013316,0.00119842,0.00013316,-0.01119049,-0.01153903,0.1018098
-0.06037707,0.05066797,0.07671589,0.9939326,0.00093211,0.0015979,0.00026632,-0.01119671,-0.01165728,0.10185337
-0.06046563,0.05094256,0.0764224,0.99393588,0.00013316,0.00173105,-0.00013316,-0.01122783,-0.01154525,0.10143637
-0.06036435,0.05091869,0.07602687,0.99397355,-0.00119842,0.00186421,0.00186421,-0.01145811,-0.01165105,0.10218323
-0.06001604,0.05083299,0.07490126,0.99408454,-0.00066579,0.00213053,0.00066579,-0.01130874,-0.01145811,0.10195295
-0.05981857,0.05085112,0.0743004,0.99414051,0.00013316,0.00346211,0.0,-0.01110958,-0.01151413,0.102121
-0.05993448,0.05096586,0.07404241,0.99414694,-0.00026632,0.00066579,0.00026632,-0.01091042,-0.01131497,0.10175379
-0.05991712,0.05093339,0.07390379,0.99415994,0.00026632,0.00213053,-0.00133158,-0.01144567,-0.01161993,0.10169777
-0.05977376,0.05095581,0.07310265,0.99422675,0.00066579,0.00239685,0.00066579,-0.01126518,-0.01147679,0.10200896
-0.0597311,0.05115579,0.07251174,0.99426222,-0.00146474,0.00253,-0.00053263,-0.01145811,-0.01165105,0.10215212
-0.05986901,0.05130048,0.07232396,0.99426013,-0.00039947,0.00319579,-0.00039947,-0.01129629,-0.01150168,0.10197785
-0.05973159,0.05121582,0.07231894,0.99427319,0.00079895,0.00319579,0.00039947,-0.01163238,-0.01170085,0.10205253
-0.06049011,0.05127487,0.07422018,0.99408412,0.00119842,0.00213053,-0.00026632,-0.01144567,-0.01161371,0.10179735
-0.06129775,0.05106384,0.07725304,0.99381447,-0.00039947,0.00279632,-0.00079895,-0.01137098,-0.0116635,0.10189693
-0.06142749,0.05087288,0.07946868,0.99364156,-0.00026632,0.00279632,-0.00093211,-0.01119671,-0.01158882,0.10224547
-0.0616793,0.05064121,0.08256146,0.99338549,0.00053263,0.00279632,0.0,-0.01152658,-0.01137098,0.10210232
-0.06175845,0.05060364,0.0842888,0.9932375,-0.00133158,0.00213053,0.00106526,-0.01140832,-0.01157014,0.10192806
-0.06097871,0.05060829,0.08373075,0.99333256,0.00199737,0.00359527,-0.00066579,-0.01145189,-0.01137098,0.1019654
-0.06069786,0.05063446,0.08341952,0.99337471,0.00013316,0.00292948,0.00133158,-0.01123406,-0.01146434,0.10197162
-0.06077434,0.05054129,0.08383075,0.99334013,0.00106526,0.00319579,-0.00039947,-0.01120916,-0.01124028,0.10187826
-0.06066816,0.05038546,0.08426246,0.99331796,-0.00079895,0.00199737,-0.00066579,-0.01157637,-0.01159504,0.1018347
-0.0600445,0.05035312,0.08251026,0.99350452,0.00026632,0.00053263,0.00026632,-0.01132741,-0.01149546,0.10204631
-0.05953826,0.05036636,0.08050349,0.99369901,0.00066579,0.00239685,0.0,-0.0115577,-0.0117942,0.10201519
-0.05959127,0.05059295,0.07932103,0.99377936,-0.00093211,0.00332895,-0.00013316,-0.01137721,-0.01164483,0.10177868
-0.05952571,0.05055344,0.07854166,0.99384725,-0.00106526,0.00173105,0.0,-0.01114692,-0.01138965,0.1019654
-0.05998574,0.05092109,0.07830536,0.99381948,0.00053263,0.00266316,-0.00093211,-0.01132119,-0.0115328,0.10222057
-0.06047321,0.05091434,0.0791684,0.99372184,-0.00093211,0.00106526,0.00066579,-0.0114021,-0.0118191,0.10214589
-0.06081638,0.05073183,0.07962795,0.99367356,0.00066579,0.00186421,-0.00013316,-0.01133986,-0.01154525,0.10179735
-0.05991593,0.05106391,0.07632381,0.99397051,0.00039947,0.00173105,-0.00239685,-0.01129629,-0.01163238,0.10179113
-0.05962642,0.05114895,0.07447355,0.99412388,-0.00079895,0.00332895,-0.00119842,-0.01146434,-0.01159504,0.10173512
-0.06028083,0.05120406,0.07590726,0.99397314,0.0,0.00306264,-0.00026632,-0.011427,-0.01161371,0.102121
-0.06074593,0.05115045,0.07749497,0.99382502,0.00039947,0.00186421,0.00026632,-0.01139588,-0.01144567,0.10197785
-0.06021715,0.05114145,0.07597867,0.99397469,-0.00013316,0.00213053,0.00066579,-0.01145811,-0.01167595,0.10205875
-0.05961427,0.0512233,0.07339446,0.994201,-0.00066579,0.00279632,0.00053263,-0.01131497,-0.01148923,0.10202763
-0.05934505,0.05104522,0.07221836,0.99431235,-0.00173105,0.0015979,0.00079895,-0.01130252,-0.01154525,0.10217079
-0.05964699,0.05115828,0.07187461,0.99431342,-0.00106526,0.00253,0.00119842,-0.01147679,-0.01172574,0.10176001
-0.05956029,0.05132573,0.07110991,0.99436498,-0.00119842,0.00279632,0.00106526,-0.01104734,-0.01141455,0.10237617
-0.05915108,0.05130118,0.06932662,0.99451655,-0.00133158,0.00199737,-0.00106526,-0.0112714,-0.01145811,0.10201519
-0.05925463,0.05144579,0.06833373,0.99457163,0.00173105,0.00213053,0.00186421,-0.01130252,-0.01165105,0.10201519
-0.05918081,0.05153445,0.06747351,0.99463016,-0.00119842,0.00213053,0.00093211,-0.01129629,-0.01157637,0.10200896
-0.05919607,0.05137863,0.06696622,0.9946717,-0.00133158,0.00146474,0.0015979,-0.01127762,-0.01143944,0.10187204
-0.06107112,0.05110261,0.0733288,0.99412358,-0.00066579,0.00266316,0.00119842,-0.01145811,-0.01162616,0.10184714
-0.06182888,0.05115739,0.07714401,0.99378514,0.00146474,0.00306264,0.00026632,-0.01170085,-0.01157014,0.102121
-0.06139909,0.05113472,0.07789777,0.99375421,-0.00026632,0.00106526,-0.00079895,-0.01145189,-0.01143322,0.10208365
-0.06083674,0.0511498,0.0779646,0.99378282,-0.00039947,0.00226369,0.00093211,-0.01147679,-0.01135853,0.10179113
-0.05985672,0.05135049,0.07617634,0.99397063,0.0,0.00359527,0.00053263,-0.01132741,-0.01129007,0.10198407
-0.05953516,0.05132219,0.07411008,0.99414754,-0.00013316,0.00093211,0.0,-0.01137721,-0.01162616,0.10175379
-0.05970639,0.05125663,0.07338756,0.99419421,0.0,0.00053263,0.00053263,-0.01149546,-0.01152035,0.1019654
-0.05977541,0.05112456,0.07354619,0.99418515,0.00026632,0.0015979,-0.00039947,-0.01146434,-0.01157014,0.10204008
-0.06003588,0.05105263,0.07408365,0.99413335,-0.00013316,0.00292948,0.00133158,-0.01139588,-0.01157014,0.10236372
-0.06043501,0.05115445,0.07549371,0.99399787,-0.00146474,0.00266316,0.00093211,-0.01157014,-0.01152035,0.10235128
-0.06044465,0.05118091,0.0763016,0.99393409,-0.00013316,0.00306264,-0.00039947,-0.01134609,-0.01149546,0.10200896
-0.06064967,0.05070371,0.07819225,0.99379921,-0.00013316,0.00199737,0.00066579,-0.01132119,-0.01149546,0.10208365
-0.0607092,0.05067866,0.07935352,0.99370474,0.0,0.00239685,0.00133158,-0.01149546,-0.01155147,0.10197162
-0.05951984,0.05098595,0.07576773,0.99404085,0.0,0.00186421,0.00066579,-0.01122783,-0.01135231,0.10187826
-0.05921489,0.05116236,0.07287553,0.99426615,0.00119842,0.00266316,0.00079895,-0.01130874,-0.01175686,0.10197162
-0.06002767,0.05105706,0.07432494,0.99411559,-0.00146474,0.00093211,0.00079895,-0.01133364,-0.0115328,0.10233261
-0.06062239,0.05058287,0.07688262,0.99390912,0.00066579,0.00279632,-0.00013316,-0.01142077,-0.01150791,0.10224547
-0.06124251,0.05044547,0.07979729,0.99364835,-0.00106526,-0.00013316,0.00106526,-0.01145811,-0.0116635,0.10191561
-0.06168163,0.05037996,0.08287416,0.99337256,0.00039947,0.00253,0.00053263,-0.01133986,-0.01156392,0.10190938
-0.06169698,0.05028915,0.08506553,0.99319094,0.00053263,0.00106526,0.00013316,-0.01148923,-0.01160749,0.10216456
-0.06164037,0.0499545,0.08717661,0.99302834,0.00039947,0.00319579,-0.00053263,-0.01115315,-0.01150791,0.10195918
-0.06135004,0.05000852,0.08790407,0.99297947,0.00133158,0.00386158,-0.00133158,-0.01139588,-0.01158259,0.10202763
-0.05986869,0.05040668,0.08290233,0.99347991,-0.00093211,0.00253,0.00093211,-0.01144567,-0.01167595,0.10197162
-0.05947925,0.05072872,0.07990129,0.99373263,-0.00066579,0.00119842,0.00013316,-0.0117942,-0.01181288,0.10181603
-0.05974092,0.05099617,0.07922813,0.99375719,0.00026632,0.00186421,0.00039947,-0.01133364,-0.01160749,0.10166043
-0.06000135,0.0510384,0.0788092,0.99377263,-0.00093211,0.00279632,-0.00013316,-0.01150791,-0.01172574,0.10197785
-0.06016123,0.05069261,0.07941375,0.99373263,0.00133158,0.00146474,0.00039947,-0.01122161,-0.01137098,0.10215212
-0.06054549,0.05052546,0.08004165,0.99366742,0.00133158,0.00213053,0.00013316,-0.01129629,-0.01164483,0.10198407
-0.06033295,0.05065687,0.0798616,0.99368817,0.00079895,0.00266316,-0.00066579,-0.01133364,-0.01145189,0.10205875
-0.06014138,0.05060431,0.0793855,0.9937405,-0.00079895,0.0015979,-0.00066579,-0.01138343,-0.01152658,0.10179735
-0.0607137,0.05073399,0.08052278,0.99360758,-0.00039947,0.00292948,0.00119842,-0.01157014,-0.0114021,0.10236995
-0.06100768,0.05056458,0.08349987,0.99335241,0.0,0.00266316,0.00146474,-0.0112714,-0.01113447,0.10184714
-0.06104454,0.05066732,0.08442824,0.99326652,-0.00013316,0.00253,0.00079895,-0.01138343,-0.01152035,0.10189693
-0.05964204,0.05071681,0.07910573,0.99378723,-0.00026632,0.00292948,-0.00013316,-0.01133364,-0.01151413,0.10202763
-0.059192,0.05109882,0.07618127,0.99402297,0.00106526,0.00199737,0.00053263,-0.0112465,-0.01150168,0.10206498
-0.05990744,0.05100983,0.07749862,0.99388289,0.00053263,0.00226369,0.0,-0.01125273,-0.01154525,0.10218323
-0.06032151,0.05108539,0.07824495,0.99379539,0.00066579,0.00226369,0.00039947,-0.01157637,-0.01167595,0.10200896
-0.06020096,0.05114872,0.0780146,0.99381763,0.00066579,0.00279632,-0.00026632,-0.0115328,-0.01170707,0.10190938
-0.06018407,0.05112993,0.07768395,0.99384546,0.00093211,0.00279632,0.0,-0.01152035,-0.01161371,0.10197785
-0.05996394,0.05113463,0.07738098,0.99388224,0.00026632,0.00266316,0.00039947,-0.01141455,-0.01137721,0.10195918
-0.05998416,0.05117884,0.07710308,0.99390036,-0.00079895,0.0015979,-0.00026632,-0.01127762,-0.01152035,0.10172267
-0.06020378,0.05103808,0.07697918,0.99390388,-0.00133158,0.0015979,-0.00053263,-0.01143944,-0.0115577,0.10193428
-0.06020253,0.05098055,0.07699423,0.99390572,0.00093211,0.00266316,0.0015979,-0.01148301,-0.01175064,0.10195918
-0.06021401,0.0509963,0.07660109,0.99393457,-0.00133158,0.00133158,0.0015979,-0.01144567,-0.01153903,0.10233883
-0.06004471,0.05122112,0.07499345,0.99405581,0.00026632,0.00266316,-0.00106526,-0.01146434,-0.01180043,0.10192806
-0.05980308,0.05133078,0.0740893,0.99413258,-0.00013316,0.00093211,-0.00146474,-0.01136476,-0.01143322,0.10176001
-0.05982441,0.05146157,0.07366456,0.99415606,0.00013316,0.00292948,-0.00026632,-0.01167595,-0.01160749,0.10195918
-0.05984504,0.05153087,0.07342121,0.99416929,-0.00199737,0.00253,0.00119842,-0.01155147,-0.01168217,0.1018098
-0.05977018,0.05131731,0.07307757,0.99421012,0.00119842,0.00199737,0.0,-0.01125895,-0.01148923,0.10195918
-0.05995651,0.05162017,0.07282452,0.9942019,-0.00093211,0.00359527,-0.00173105,-0.01163238,-0.01163861,0.10218946
-0.06062046,0.0513835,0.07531361,0.99398839,-0.00079895,0.00279632,0.0015979,-0.01110336,-0.01132119,0.10179113
-0.06124101,0.05104845,0.07816592,0.99374729,0.00053263,0.0015979,0.00093211,-0.01138343,-0.01157014,0.10223302
-0.06064616,0.05099101,0.07785692,0.99381101,0.00173105,0.00266316,-0.00133158,-0.01132741,-0.01158259,0.10178491
-0.05972348,0.05109124,0.07553583,0.99404079,-0.00053263,0.00239685,0.00146474,-0.01147056,-0.01150791,0.10158575
-0.0598186,0.05105202,0.074507,0.99411482,-0.0015979,0.00133158,0.00133158,-0.01150791,-0.01161371,0.10200274
-0.0600513,0.0511127,0.07514944,0.99404925,-0.00093211,0.00266316,-0.00053263,-0.01117182,-0.01144567,0.10205253
-0.06011761,0.05100469,0.0755065,0.9940238,-0.00106526,0.00319579,0.00119842,-0.01120916,-0.01144567,0.10192806
-0.06014751,0.05096016,0.07596429,0.99398935,-0.00039947,0.00319579,-0.00053263,-0.01135231,-0.0115577,0.10197785
-0.06018978,0.05087565,0.07622914,0.99397087,0.00093211,0.00306264,-0.00066579,-0.01110958,-0.01157014,0.10217701
-0.05998535,0.05099239,0.07520871,0.99405491,-0.00066579,0.00253,0.00199737,-0.01136476,-0.01160749,0.10215212
-0.05979105,0.05111478,0.07433159,0.99412638,-0.00053263,0.00253,-0.00053263,-0.01108468,-0.01151413,0.10163553
-0.06089438,0.05093957,0.07780392,0.99380267,-0.00066579,0.00146474,0.00173105,-0.01165728,-0.01177553,0.10182225
-0.06152416,0.05066496,0.08196808,0.99344301,-0.00039947,0.00093211,0.00026632,-0.01137098,-0.01157014,0.10199029
-0.06156348,0.0506185,0.08374874,0.99329454,-0.00079895,0.00292948,-0.00039947,-0.01164483,-0.01180665,0.10224547
-0.06120251,0.05069817,0.08406296,0.99328619,-0.00079895,0.00146474,0.0,-0.01114692,-0.01155147,0.10188448
-0.06103676,0.05066252,0.08408624,0.99329627,-0.00173105,0.00213053,0.00013316,-0.01139588,-0.01142077,0.10199029
-0.06067211,0.05088564,0.08357205,0.99335057,0.00146474,0.00213053,0.00053263,-0.01151413,-0.01161371,0.10207742
-0.06074075,0.05086318,0.08329528,0.99337083,0.00039947,0.00053263,-0.00119842,-0.01160749,-0.01175064,0.1016791
-0.06034335,0.05057628,0.08259419,0.99346823,-0.00026632,0.00319579,-0.00026632,-0.01145811,-0.01161371,0.10189693
-0.06048586,0.05072217,0.08217923,0.99348652,0.00106526,0.00292948,0.00173105,-0.01117804,-0.01147056,0.10192183
-0.05974118,0.05061248,0.07920528,0.99377859,0.00093211,0.00146474,0.00106526,-0.01093531,-0.01137721,0.10189693
-0.05940202,0.05070527,0.07686017,0.99397838,-0.0015979,0.00452737,-0.00039947,-0.01145811,-0.0112465,0.1016791
-0.05994647,0.05076356,0.07707362,0.99392617,-0.00053263,0.00213053,-0.00053263,-0.01148923,-0.01153903,0.10204008
-0.06021852,0.05078635,0.07810204,0.99382824,-0.00066579,0.00239685,0.00026632,-0.01139588,-0.01161993,0.10190938
-0.05977891,0.05061593,0.07634313,0.99400014,0.00013316,0.00266316,-0.00026632,-0.01142077,-0.01191868,0.10189071
-0.05909466,0.05096426,0.07220282,0.99433255,0.00079895,0.0015979,0.00013316,-0.01122783,-0.01160126,0.10208365
-0.05957745,0.05102458,0.07160111,0.99434417,-0.00053263,0.00186421,0.00053263,-0.01143322,-0.01163861,0.10239484
-0.06141575,0.05104248,0.07730825,0.99380392,-0.00066579,0.00079895,0.0,-0.01157014,-0.0116884,0.10191561
-0.06175882,0.05073951,0.08044065,0.99354953,0.00026632,0.00213053,0.00093211,-0.01122783,-0.01164483,0.10192806
-0.06111434,0.05073373,0.0802641,0.993604,0.00053263,0.00346211,0.00119842,-0.01156392,-0.0115577,0.10192183
-0.06061902,0.05061756,0.08022583,0.99364328,0.0,0.00226369,0.00066579,-0.011427,-0.01150168,0.10191561
-0.05982174,0.05063152,0.07744327,0.99391168,-0.00026632,0.0015979,-0.00093211,-0.01130252,-0.01148923,0.10174756
-0.05938818,0.05100555,0.07524943,0.99408704,-0.00053263,0.00292948,-0.00079895,-0.01129007,-0.011427,0.10171022
-0.06041573,0.05093594,0.07777109,0.99383456,-0.0015979,0.00306264,-0.00039947,-0.01157014,-0.01138965,0.10192183
-0.06137635,0.05095719,0.08124552,0.99349666,-0.00039947,0.00266316,0.00106526,-0.01147679,-0.01161371,0.10189071
-0.06054261,0.05090639,0.08010858,0.99364275,-0.00079895,0.00079895,0.00146474,-0.01161371,-0.01155147,0.10195295
-0.05981106,0.05104364,0.07651434,0.99396324,0.00039947,0.00279632,0.0015979,-0.01152035,-0.01166973,0.10161686
-0.05997135,0.05115146,0.0762889,0.99396533,0.00119842,0.00093211,0.00053263,-0.01150791,-0.01152035,0.10204008
-0.06092654,0.05099477,0.07987753,0.99363333,0.00079895,0.00372843,0.00053263,-0.01133986,-0.01140832,0.10199652
-0.06117673,0.05074298,0.08194941,0.99346209,-0.00053263,0.00199737,-0.00093211,-0.011427,-0.0115577,0.10227036
-0.06098968,0.05073867,0.08230709,0.99344426,-0.00066579,0.00119842,0.00079895,-0.01151413,-0.01160126,0.10172889
-0.06065968,0.05081006,0.08254717,0.99344087,-0.00133158,0.00359527,0.00013316,-0.01136476,-0.01134609,0.10191561
-0.0605551,0.0508362,0.08171112,0.99351496,-0.00066579,0.00239685,-0.00053263,-0.01142077,-0.01166973,0.10194051
-0.06030126,0.05069632,0.08110745,0.99358708,0.00106526,0.00186421,0.0,-0.01132741,-0.01171329,0.10205875
-0.05986859,0.05064677,0.07930032,0.99376166,-0.00013316,0.00173105,0.00093211,-0.0112465,-0.01132741,0.10186581
-0.05967283,0.05076217,0.07773682,0.99389112,-0.00106526,0.00186421,0.00186421,-0.01130252,-0.01139588,0.10176001
-0.0598913,0.05103189,0.0773391,0.99389511,-0.00066579,0.00173105,0.00026632,-0.01148301,-0.01159504,0.10205875
-0.06015367,0.05095509,0.07735872,0.99388164,0.0,0.00332895,-0.00066579,-0.01132119,-0.01131497,0.10178491
-0.06123272,0.05054937,0.08053866,0.9935838,-0.00079895,0.00226369,0.00186421,-0.011427,-0.01183777,0.10206498
-0.06231707,0.05038866,0.08592171,0.99307358,0.00013316,0.00306264,0.00146474,-0.01133986,-0.01154525,0.10177246
-0.06168238,0.05021759,0.08721321,0.99300927,0.00093211,0.00292948,-0.00053263,-0.01155147,-0.01167595,0.10205253
-0.06003118,0.05085644,0.08043921,0.99364954,0.00106526,0.00199737,0.00119842,-0.01158259,-0.01190623,0.10190938
-0.05933729,0.05108386,0.07676516,0.99397016,0.00106526,0.00292948,0.00013316,-0.01135853,-0.01151413,0.10215834
-0.05969582,0.05098905,0.0773638,0.99390715,0.00093211,0.00372843,0.00119842,-0.01148301,-0.01147679,0.10197785
-0.06029546,0.05093915,0.07763995,0.99385202,-0.00013316,0.00279632,0.00146474,-0.01125273,-0.01162616,0.10215212
-0.06106605,0.05063025,0.08056843,0.99358767,0.00053263,0.00279632,0.00053263,-0.01142077,-0.01185644,0.10179735
-0.06134432,0.05047695,0.08276094,0.99339801,-0.00039947,0.00239685,0.00013316,-0.01117804,-0.01125273,0.10197785
-0.06067313,0.05033928,0.08300916,0.99342549,0.00173105,0.00253,-0.00133158,-0.0112714,-0.01140832,0.10189071
-0.06026696,0.05052215,0.08270779,0.99346614,0.00093211,0.00279632,0.0,-0.01142077,-0.01138965,0.10208365
-0.06015835,0.05064164,0.08122434,0.99358904,-0.00066579,0.00292948,-0.00053263,-0.01127762,-0.01166973,0.1018347
-0.05976576,0.05076497,0.07936171,0.99375689,0.00039947,0.00439422,0.00239685,-0.0115328,-0.0115577,0.10218323
-0.05940695,0.05088442,0.0773319,0.99393231,-0.00053263,0.00239685,0.0015979,-0.01135231,-0.01148301,0.10205875
-0.05872371,0.05115066,0.07373361,0.99423259,0.00079895,0.00186421,0.0,-0.01137721,-0.01135231,0.10202141
-0.05870971,0.0513163,0.07183973,0.99436367,-0.00186421,0.00306264,0.00146474,-0.01133986,-0.01153903,0.10230149
-0.05916379,0.0513966,0.071587,0.99435079,-0.00013316,0.00306264,0.0,-0.01148301,-0.01170085,0.10188448
-0.05940913,0.05153255,0.07139858,0.99434263,-0.00053263,0.0015979,-0.00093211,-0.01138343,-0.01150168,0.10170399
-0.06016495,0.05149254,0.07314942,0.99417198,-0.00039947,0.00133158,0.00079895,-0.01139588,-0.01153903,0.10192806
-0.06043583,0.0513841,0.07420826,0.99408269,-0.00026632,0.00186421,0.00066579,-0.01148923,-0.01152035,0.10199652
-0.05884761,0.05147274,0.06896652,0.99455076,0.0,0.00226369,-0.00026632,-0.01141455,-0.01150791,0.10233883
-0.05815056,0.0516316,0.06464696,0.99487364,0.0,0.00399474,0.0,-0.01128385,-0.01140832,0.10208987
-0.05987807,0.05164333,0.06819481,0.99453366,-0.00053263,0.00106526,0.0,-0.01155147,-0.01166973,0.10167287
-0.06129842,0.05126437,0.07413901,0.9940412,-0.00013316,0.00213053,0.00013316,-0.01122783,-0.01133364,0.10198407
-0.0610815,0.05119602,0.07545649,0.99395901,0.00106526,0.00226369,0.00199737,-0.0114021,-0.01150791,0.10208987
-0.06004545,0.05129142,0.07345058,0.99416733,-0.00119842,0.00173105,0.00039947,-0.01112825,-0.01148923,0.10177868
-0.05990343,0.05133816,0.07257647,0.99423778,-0.00093211,0.00146474,0.00013316,-0.01162616,-0.01161371,0.10218323
-0.06017264,0.05123783,0.07346463,0.99416143,-0.00013316,0.00332895,-0.00013316,-0.0114021,-0.01158882,0.10170399
-0.06053776,0.05126067,0.07392606,0.99410385,-0.00106526,0.00372843,-0.00133158,-0.01153903,-0.01174441,0.1016791
-0.06175973,0.05075224,0.0799112,0.99359161,0.00013316,0.00253,0.00013316,-0.01128385,-0.01154525,0.10179113
-0.061792,0.05059213,0.08346226,0.99330574,-0.00039947,0.00199737,0.00026632,-0.01134609,-0.0116635,0.10199029
-0.05997553,0.0505459,0.07977081,0.99372262,0.00066579,0.00359527,0.00199737,-0.01125273,-0.01136476,0.1020961
-0.05926414,0.05073831,0.07636985,0.99402267,0.00079895,0.00266316,-0.00039947,-0.01150791,-0.0116635,0.10204008
-0.05984814,0.05083824,0.07651331,0.99397159,0.00013316,0.00319579,0.00106526,-0.01125895,-0.01137098,0.10194051
-0.06029487,0.05076082,0.07806961,0.99382746,0.00093211,0.00039947,-0.00146474,-0.01157637,-0.01138343,0.10210855
-0.06021805,0.05060279,0.0780933,0.99383831,-0.00053263,0.00266316,-0.00039947,-0.01151413,-0.01164483,0.10213344
-0.06018715,0.05077,0.076754,0.99393606,0.00013316,0.00253,0.00106526,-0.011427,-0.0118191,0.10194051
-0.05986569,0.05075741,0.07608283,0.99400771,0.00066579,0.00292948,0.00013316,-0.01137098,-0.011427,0.10233883
-0.06000855,0.0506377,0.0760529,0.99400747,-0.00026632,0.00226369,-0.00053263,-0.01119671,-0.01129007,0.10182225
-0.05999917,0.05087909,0.07605498,0.99399561,0.0,0.00279632,0.00146474,-0.01147056,-0.01148301,0.1019654
-0.05928503,0.05097567,0.07354227,0.99422246,-0.00119842,0.00426106,0.00013316,-0.01151413,-0.01142077,0.10207742
-0.05924128,0.05115246,0.07211926,0.99432027,-0.00013316,0.00173105,-0.00106526,-0.01147056,-0.01167595,0.10188448
-0.05954254,0.05103367,0.0723443,0.99429196,0.00053263,0.00439422,-0.00093211,-0.01129007,-0.01154525,0.10192183
-0.05987716,0.05096441,0.07275979,0.99424517,0.00026632,0.00426106,-0.00039947,-0.01133364,-0.01136476,0.10190938
-0.0610247,0.0508766,0.07649975,0.99389911,-0.00253,0.00079895,-0.00053263,-0.01152658,-0.01157637,0.10208365
-0.06177129,0.05066477,0.0811433,0.99349546,-0.00186421,0.00133158,-0.00066579,-0.01133364,-0.01158882,0.10195295
-0.06146305,0.05068076,0.08250677,0.99340147,-0.00013316,0.00319579,-0.00039947,-0.01137721,-0.01165728,0.10217701
-0.06071981,0.05059301,0.08145834,0.99353814,-0.00106526,0.00306264,0.00146474,-0.01100377,-0.01143322,0.10184092
-0.06036779,0.05074256,0.08053625,0.99362719,-0.00119842,0.00079895,-0.00079895,-0.01138343,-0.01152035,0.10230771
-0.05954754,0.05064758,0.07844244,0.99384892,0.00039947,0.00133158,0.00079895,-0.01128385,-0.01146434,0.10195918
-0.05951774,0.05060112,0.07720588,0.99394995,-0.00039947,0.00146474,-0.00039947,-0.01133986,-0.01160126,0.10161686
-0.05924499,0.0508441,0.07557354,0.99407923,-0.00173105,0.00386158,-0.00093211,-0.01160749,-0.01150791,0.10189693
-0.05952556,0.05074987,0.07461029,0.99414003,-0.00039947,0.00173105,-0.00066579,-0.01129629,-0.01173819,0.1020712
-0.06023777,0.05082281,0.07687814,0.99392068,0.00026632,0.00332895,-0.00026632,-0.01128385,-0.01132741,0.10215212
-0.06067756,0.05091598,0.07912613,0.99371266,0.00066579,0.00279632,-0.00053263,-0.01104734,-0.01135231,0.10184714
-0.06049231,0.05067837,0.07930126,0.9937222,0.00039947,0.00279632,-0.00186421,-0.01133986,-0.011427,0.10219568
-0.06038223,0.0510699,0.07868953,0.99375749,0.00106526,0.00226369,-0.00013316,-0.01125273,-0.0115328,0.10233883
-0.06062791,0.05109379,0.07905388,0.99371243,-0.00026632,0.00359527,0.00013316,-0.01149546,-0.01199337,0.10225792
-0.06093897,0.05065525,0.08035169,0.99361169,0.0,0.00306264,-0.00079895,-0.01137721,-0.01154525,0.10190316
-0.06067344,0.05045805,0.08087477,0.99359554,0.00066579,0.0015979,0.00013316,-0.01092909,-0.01147056,0.10177868
-0.06025512,0.05065191,0.07941393,0.99372888,-0.00066579,0.00239685,-0.00199737,-0.01148923,-0.01143322,0.10160442
-0.06001088,0.05065257,0.07862574,0.9938063,0.00066579,0.00253,-0.00093211,-0.0114021,-0.01154525,0.10172889
-0.05940261,0.05083999,0.07581089,0.99405205,0.0,0.00226369,0.00186421,-0.01135231,-0.01152035,0.10203386
-0.05943518,0.05101368,0.07420553,0.99416232,0.00079895,0.00466053,0.00079895,-0.01145811,-0.01191246,0.10204631
-0.06009399,0.05072111,0.07557874,0.99403417,-0.00186421,0.00079895,0.0,-0.01125895,-0.01152035,0.10191561
-0.06040308,0.05065826,0.07711574,0.9939006,-0.00039947,0.00093211,-0.00066579,-0.01140832,-0.01163861,0.10193428
-0.06110719,0.05062139,0.07947756,0.99367338,0.00119842,0.00319579,-0.00013316,-0.01145189,-0.01149546,0.10205875
-0.06148477,0.05060973,0.08194789,0.99345005,-0.00053263,0.00186421,0.00053263,-0.01125273,-0.01165728,0.10187204
-0.06106154,0.0506456,0.08290293,0.99339503,0.0,0.00199737,0.0,-0.01157014,-0.01164483,0.10241974
-0.06082788,0.05063863,0.08234543,0.99345618,-0.00039947,0.00106526,0.00106526,-0.01138965,-0.01176931,0.10172889
-0.06066925,0.05063043,0.08202131,0.99349308,-0.00093211,0.00173105,0.0015979,-0.0111407,-0.01140832,0.1022019
-0.06055235,0.05044631,0.0820074,0.99351072,0.00226369,0.00013316,-0.00026632,-0.01135231,-0.01160749,0.10213967
-0.06041138,0.05038952,0.08199536,0.99352312,-0.00079895,0.00266316,-0.00133158,-0.01134609,-0.01156392,0.10192183
-0.06002635,0.0504949,0.08061852,0.99365383,-0.00119842,0.00399474,0.00239685,-0.01158259,-0.01168217,0.10201519
-0.06017866,0.05089197,0.07981963,0.99368876,0.0,0.00239685,-0.00039947,-0.01148301,-0.01158882,0.10184092
-0.06029545,0.05096963,0.07939213,0.99371195,0.0,0.00266316,0.0015979,-0.01138965,-0.01163861,0.10203386
-0.06009259,0.05072137,0.07915445,0.99375594,0.00026632,0.00253,-0.00013316,-0.01133364,-0.01147679,0.10180358
-0.06053861,0.05061762,0.08075603,0.99360526,0.00026632,0.00319579,0.00066579,-0.01107846,-0.01145811,0.10200896
-0.06107445,0.05083757,0.0828445,0.99338931,-0.00093211,0.00173105,0.00079895,-0.01152658,-0.01149546,0.10195295
-0.06045431,0.05078384,0.08170161,0.99352467,-0.00093211,0.00199737,0.00133158,-0.01117804,-0.01138965,0.10226414
-0.0592685,0.05085675,0.07719891,0.99395233,0.0,0.00186421,-0.00013316,-0.01132741,-0.01152658,0.10166043
-0.05939671,0.05108196,0.07510589,0.99409348,-0.00026632,0.00253,-0.00173105,-0.01152035,-0.01178175,0.10176001
-0.06032736,0.0509025,0.07710874,0.99389321,-0.00026632,0.00026632,0.00106526,-0.01120294,-0.01161993,0.10223302
-0.06068826,0.05059305,0.07817549,0.99380374,-0.00039947,0.00186421,0.00013316,-0.01125273,-0.01136476,0.10198407
-0.05979943,0.05083304,0.07452466,0.99412578,0.00039947,0.0015979,0.00026632,-0.01125273,-0.01157014,0.10189071
-0.05957776,0.05104849,0.07236432,0.99428773,-0.00079895,0.00106526,-0.00013316,-0.01136476,-0.01132119,0.10197162
-0.06024586,0.05084826,0.07470606,0.99408454,0.00173105,0.00213053,0.00013316,-0.01122161,-0.01152658,0.10219568
-0.06088331,0.05075843,0.07719848,0.99385983,-0.00013316,0.00133158,-0.00013316,-0.01131497,-0.01162616,0.1020712
-0.05983357,0.05060853,0.07575779,0.99404204,-0.00146474,0.00053263,0.00106526,-0.01128385,-0.0114021,0.10213344
-0.05931829,0.05083241,0.07300391,0.99426752,0.00093211,0.00292948,-0.00053263,-0.01144567,-0.01169462,0.10198407
-0.06038151,0.05104131,0.07370055,0.99414134,-0.00079895,0.00133158,-0.00053263,-0.01144567,-0.01134609,0.10216456
-0.061727,0.05088664,0.07789871,0.99374658,0.00093211,0.00226369,0.00199737,-0.01151413,-0.01178175,0.10186581
-0.06157989,0.05065923,0.08000595,0.99359989,0.00106526,0.00266316,0.00093211,-0.01118426,-0.01144567,0.10230771
-0.06080612,0.05074452,0.07924354,0.99370426,-0.00146474,0.0015979,0.0,-0.01141455,-0.01143944,0.10187826
-0.06047302,0.05063368,0.07884383,0.99376196,0.0,0.00332895,0.00186421,-0.01133986,-0.01160126,0.10188448
-0.06014818,0.05080165,0.07735487,0.99389011,0.00079895,0.00146474,0.00013316,-0.01151413,-0.01184399,0.10178491
-0.06026026,0.05106418,0.07642103,0.99394214,0.00026632,0.00332895,-0.00079895,-0.01124028,-0.01164483,0.10179113
-0.06024364,0.05101784,0.07649453,0.99394,-0.00013316,0.00173105,0.00119842,-0.01137098,-0.01134609,0.10187826
-0.06056297,0.05111383,0.07670794,0.99389917,-0.00133158,0.00239685,0.00053263,-0.01161371,-0.01161371,0.10197785
-0.06010325,0.05075088,0.07635741,0.99397266,0.00079895,0.00292948,-0.00146474,-0.01109713,-0.01148301,0.10174756
-0.05987381,0.05091888,0.07594334,0.99400961,0.00053263,0.00266316,-0.00013316,-0.01136476,-0.01145811,0.10175379
-0.06065075,0.05097432,0.07759753,0.99383187,0.00013316,0.0041279,0.0,-0.01150791,-0.0116635,0.10179113
-0.06127015,0.05097642,0.0806307,0.99355233,0.00133158,0.00239685,0.00026632,-0.01143322,-0.01170085,0.10189693
-0.06112604,0.05092169,0.08107369,0.99352789,-0.00026632,0.00146474,0.00146474,-0.01161371,-0.01183155,0.10208365
-0.06038496,0.05103658,0.07864051,0.99376285,0.0,0.0015979,0.0,-0.01130874,-0.01133986,0.10195295
-0.06020779,0.05079294,0.07807984,0.99383026,0.00066579,0.00106526,-0.00039947,-0.01115937,-0.01166973,0.10229526
-0.0611602,0.05068417,0.08138116,0.99351287,-0.00106526,0.00199737,0.00013316,-0.01124028,-0.01149546,0.10182225
-0.06147164,0.05057846,0.08330685,0.99333942,-0.00106526,0.00146474,0.00133158,-0.01124028,-0.0116635,0.10173512
-0.05969475,0.05074418,0.07850567,0.9938302,-0.00066579,0.0041279,0.00146474,-0.0116635,-0.01161993,0.10177868
-0.05946192,0.05107865,0.07587083,0.99403167,-0.00039947,0.00213053,0.00079895,-0.01163861,-0.01187511,0.10192183
-0.05859936,0.05118903,0.07118244,0.99442393,0.00026632,0.00119842,0.0,-0.01133364,-0.01152035,0.10210855
-0.05814527,0.0512566,0.0674283,0.99470866,0.00066579,0.00319579,0.00039947,-0.01112825,-0.01132119,0.10219568
-0.05994243,0.05114014,0.07093675,0.99436396,-0.00013316,0.00186421,0.00106526,-0.01148301,-0.0115577,0.10218323
-0.06142665,0.05095099,0.07724912,0.99381262,-0.00226369,0.00346211,-0.00106526,-0.011427,-0.01157014,0.10204008
-0.06177623,0.05081399,0.08061659,0.99353045,0.00079895,0.00119842,0.00066579,-0.01140832,-0.01157014,0.102121
-0.06168027,0.05061524,0.08260618,0.99338305,-0.00066579,0.00266316,0.00199737,-0.01143944,-0.01133364,0.1020961
-0.06120444,0.05056395,0.08299942,0.99338228,0.0,0.00173105,0.00093211,-0.01162616,-0.01160126,0.10216456
-0.06033142,0.05081505,0.08119061,0.99357235,-0.00079895,0.00146474,-0.00079895,-0.01139588,-0.01138965,0.10194051
-0.06015448,0.05086939,0.08017202,0.99366313,-0.00013316,0.00119842,0.00053263,-0.01145189,-0.01175686,0.10187204
-0.06070079,0.05066286,0.08209569,0.99348336,0.00053263,0.00319579,0.00253,-0.01157014,-0.01174441,0.10204008
-0.06066462,0.05026514,0.08313839,0.99341899,-0.00026632,0.00026632,0.00079895,-0.0111407,-0.01133364,0.10186581
-0.05994047,0.05034039,0.08173833,0.99357533,-0.00093211,0.00133158,0.00039947,-0.01120294,-0.01145189,0.10224547
-0.06000242,0.05044329,0.08059727,0.99365962,0.00186421,0.00279632,0.00026632,-0.0112465,-0.01125273,0.10189693
-0.05988494,0.05068279,0.07920028,0.99376673,0.00133158,0.00186421,0.00066579,-0.01133364,-0.01146434,0.10204631
-0.05978363,0.05086814,0.07795554,0.99386185,-0.00053263,0.00266316,0.00039947,-0.01135853,-0.01173196,0.10172889
-0.05944616,0.05097927,0.07563373,0.99405581,-0.00146474,0.00332895,0.00093211,-0.01150168,-0.01165728,0.10232016
-0.05893005,0.05103801,0.07258847,0.99431044,0.00039947,0.00186421,0.00039947,-0.01132741,-0.01143944,0.10179113
-0.05995924,0.05121263,0.07338663,0.99418139,0.00039947,0.00146474,0.00039947,-0.01138965,-0.01193735,0.10219568
-0.06166461,0.05087978,0.0800157,0.99358255,-0.00066579,0.00186421,-0.00066579,-0.01150168,-0.01170707,0.10193428
-0.06239229,0.05064999,0.08384459,0.99323314,-0.00039947,0.00106526,0.00026632,-0.01141455,-0.01167595,0.10185959
-0.06113978,0.0506015,0.08166131,0.99349529,-0.00026632,0.00319579,0.00013316,-0.01143322,-0.01165728,0.10148616
-0.06074596,0.05082093,0.08049877,0.99360311,-0.00133158,0.00332895,0.0,-0.01126518,-0.01158882,0.10213967
-0.06105631,0.05071142,0.08152702,0.9935059,0.00053263,0.00106526,0.00106526,-0.01141455,-0.01155147,0.10202763
-0.06117375,0.05060808,0.08226904,0.99344277,-0.00013316,0.00266316,0.00039947,-0.0114021,-0.01163238,0.1018347
-0.06083643,0.05050842,0.08228084,0.99346757,-0.00013316,0.00399474,0.00053263,-0.01133364,-0.01160126,0.10182225
-0.06063896,0.05053972,0.08207625,0.99349499,0.00039947,0.00186421,-0.00053263,-0.01149546,-0.01182532,0.10212722
-0.06002586,0.05056975,0.07984302,0.9937126,0.00066579,0.00279632,0.00146474,-0.01109713,-0.01143944,0.10190316
-0.05977177,0.05078229,0.0763735,0.99398977,0.00013316,0.00119842,0.00066579,-0.01138343,-0.01151413,0.10187826
-0.05968802,0.05113644,0.07453547,0.99411613,0.00133158,0.00199737,-0.00079895,-0.01161993,-0.01168217,0.10211477
-0.05972278,0.05112746,0.07361101,0.99418342,0.00079895,0.00133158,-0.00026632,-0.01118426,-0.0112714,0.10181603
-0.05998875,0.05101759,0.07371555,0.9941653,0.00053263,0.00133158,0.00106526,-0.01143944,-0.0116884,0.10195295
-0.06145943,0.0510091,0.07825727,0.99372864,0.00039947,0.00226369,0.0,-0.01119671,-0.01160749,0.10173512
-0.06179628,0.05089396,0.08074363,0.99351478,0.00066579,0.00146474,0.0,-0.01117804,-0.01163238,0.10195295
-0.06014003,0.05116357,0.0764305,0.99394363,-0.00079895,0.00372843,0.00146474,-0.01154525,-0.01154525,0.10206498
-0.05955479,0.05125525,0.07391599,0.99416435,0.00039947,0.00173105,0.00053263,-0.01133364,-0.01170707,0.10174134
-0.06096889,0.05104489,0.07775823,0.99379623,0.00119842,0.00226369,0.00053263,-0.01147056,-0.01167595,0.10188448
-0.06195225,0.05095759,0.08172844,0.99342126,-0.00066579,0.00226369,-0.00039947,-0.01143944,-0.01161993,0.10213967
-0.06182278,0.05102245,0.08282568,0.99333519,-0.00066579,0.0015979,-0.00039947,-0.01170707,-0.01164483,0.10176624
-0.06109448,0.05081743,0.08259019,0.99341029,-0.00079895,0.00292948,0.00053263,-0.01148923,-0.01143944,0.10177246
-0.06057814,0.05083371,0.08173093,0.99351215,-0.00039947,0.00093211,0.00133158,-0.01139588,-0.0116635,0.10194673
-0.05995893,0.05084884,0.07975593,0.99370939,-0.00066579,0.00173105,0.00186421,-0.01147056,-0.01175686,0.10181603
-0.06029755,0.05106375,0.07855403,0.99377358,0.0,0.00186421,-0.00026632,-0.01170707,-0.01183155,0.10226414
-0.06025968,0.05124938,0.0773588,0.99386019,0.00026632,0.00226369,0.00053263,-0.01170085,-0.01158882,0.10181603
-0.06020802,0.05113541,0.07666555,0.99392277,0.00079895,0.00386158,-0.00026632,-0.0111158,-0.01157637,0.10180358
-0.06020583,0.05106325,0.07534532,0.99402767,0.00039947,0.00292948,-0.00013316,-0.01112825,-0.01171329,0.10210855
-0.06014026,0.05089013,0.07454798,0.99410063,0.00053263,0.00319579,0.00013316,-0.01146434,-0.0116884,0.10166043
-0.0615459,0.05066146,0.07991275,0.99360937,0.00053263,0.0015979,0.00079895,-0.01143944,-0.01170085,0.10177868
-0.06266028,0.05064987,0.08495009,0.99312228,-0.00093211,0.00253,-0.00106526,-0.0112465,-0.01147679,0.10184092
-0.06161008,0.05069812,0.08401095,0.99326545,-0.00146474,0.00106526,0.0,-0.01149546,-0.01153903,0.10208365
-0.0602357,0.0505401,0.08059936,0.9936403,0.0,0.00173105,0.0,-0.01117804,-0.01157637,0.10203386
-0.06004361,0.05068232,0.07894119,0.99377787,-0.00173105,0.00359527,0.0,-0.01138965,-0.01163238,0.10241351
-0.06013461,0.05063705,0.07863035,0.99379933,-0.00026632,0.00426106,-0.00026632,-0.01131497,-0.01165105,0.10194673
-0.06016188,0.05061748,0.07855691,0.99380451,-0.00026632,0.00239685,-0.0015979,-0.01130252,-0.01140832,0.10218946
-0.06054613,0.05065171,0.07947168,0.99370664,-0.00199737,0.00186421,-0.00066579,-0.01148923,-0.01156392,0.10179735
-0.06071362,0.05052969,0.0799572,0.99366367,-0.00053263,0.00079895,0.00066579,-0.01126518,-0.01141455,0.10144882
-0.06034748,0.05071407,0.07838384,0.99380189,-0.00093211,0.00119842,-0.0015979,-0.011427,-0.01159504,0.10181603
-0.06015918,0.05071508,0.07743495,0.99388772,-0.00026632,0.00186421,-0.00039947,-0.01135853,-0.01160126,0.10197785
-0.05985545,0.05064497,0.07536004,0.9940691,-0.00093211,0.00199737,0.00093211,-0.01125895,-0.01153903,0.10179735
-0.05966653,0.05079027,0.07359771,0.99420512,-0.00026632,0.00213053,-0.00119842,-0.01110336,-0.01143944,0.1018098
-0.06038947,0.05089008,0.07486286,0.99406177,0.0,0.00332895,-0.00066579,-0.01129007,-0.01157014,0.10204008
-0.06112566,0.05060304,0.07739009,0.99383789,-0.00066579,0.00239685,-0.00133158,-0.01139588,-0.01156392,0.10192183
-0.0612716,0.05059605,0.07957462,0.99365675,0.0,0.00173105,-0.00093211,-0.01129007,-0.01158882,0.10213344
-0.06150964,0.05070092,0.08226524,0.99341762,-0.00039947,0.00239685,0.00013316,-0.01130874,-0.01129007,0.10197785
-0.06130627,0.05056673,0.08359348,0.99332607,0.00133158,0.00173105,0.00226369,-0.01135231,-0.01133986,0.10184714
-0.06074659,0.05060741,0.08234327,0.99346286,-0.00093211,0.00292948,-0.00053263,-0.01129629,-0.01166973,0.10185337
-0.06056009,0.05052723,0.08166046,0.99353462,0.00013316,0.00173105,-0.00066579,-0.01130874,-0.0117942,0.10208365
-0.05978578,0.05050453,0.07830188,0.99385303,0.00053263,0.00093211,-0.00053263,-0.01132741,-0.01168217,0.10189071
-0.05966033,0.05057397,0.07637016,0.99400729,-0.00133158,0.00226369,0.00106526,-0.01160749,-0.01173819,0.10177868
-0.06001161,0.05062059,0.07654769,0.99397022,-0.00053263,0.00239685,0.00093211,-0.0115328,-0.01147679,0.10212722
-0.06024377,0.05051826,0.07715083,0.99391466,-0.00013316,0.00279632,-0.00133158,-0.01102867,-0.01173196,0.10212722
-0.06072288,0.0508065,0.07775104,0.99382401,-0.00079895,0.00226369,0.00026632,-0.01148923,-0.01175064,0.10204631
-0.06081495,0.05094474,0.07837536,0.99376225,0.00039947,0.00119842,-0.00053263,-0.01148923,-0.01165105,0.10175379
-0.06053367,0.05096955,0.07805124,0.99380374,-0.00119842,0.00213053,-0.00093211,-0.01136476,-0.0115577,0.10200896
-0.06021516,0.05122401,0.07639352,0.9939388,-0.00093211,0.00186421,-0.00093211,-0.01148301,-0.01186267,0.10172889
-0.06018815,0.05103318,0.07582087,0.99399418,-0.00053263,0.00226369,0.00066579,-0.01130252,-0.01148923,0.10178491
-0.0610703,0.05097646,0.07866011,0.9937225,-0.00053263,0.00186421,0.00173105,-0.01140832,-0.01165105,0.10182847
-0.06119461,0.05095555,0.08033236,0.99358213,-0.0015979,0.00266316,0.00013316,-0.01107846,-0.01133364,0.10191561
-0.0595466,0.05101353,0.07486206,0.99410635,-0.00053263,0.00186421,0.00079895,-0.01139588,-0.01158259,0.10233261
-0.05916668,0.05098101,0.07168377,0.99436504,0.00039947,0.00066579,-0.00053263,-0.01139588,-0.01183777,0.10230149
-0.06022456,0.05111127,0.07355157,0.99415833,-0.00013316,0.00186421,0.00013316,-0.01151413,-0.01169462,0.10198407
-0.06097274,0.05098725,0.07646108,0.99389958,-0.00039947,0.00173105,-0.00079895,-0.01145189,-0.01154525,0.10213344
-0.06167103,0.05116361,0.07926328,0.99362785,-0.00026632,0.00093211,-0.00026632,-0.01138965,-0.01161993,0.10210232
-0.06176497,0.05072399,0.08209644,0.99341446,-0.00066579,0.00292948,0.00173105,-0.01151413,-0.01168217,0.10218323
-0.06152621,0.05079195,0.08263563,0.9933812,-0.00106526,0.00066579,-0.00053263,-0.01133364,-0.01152658,0.10223924
-0.06063373,0.05082915,0.08068285,0.99359465,0.0,0.00319579,0.00146474,-0.01139588,-0.01159504,0.1016542
-0.0604066,0.05080161,0.07992399,0.99367124,-0.00066579,0.00253,-0.00053263,-0.01130252,-0.01162616,0.10217701
-0.06108478,0.05070439,0.08209734,0.9934575,-0.00026632,0.00226369,-0.00119842,-0.01150168,-0.01155147,0.10185337
-0.06149349,0.05060485,0.08338756,0.99332988,-0.00013316,0.00213053,0.0,-0.01138343,-0.01158882,0.10159819
-0.0604749,0.05088751,0.0804304,0.99362177,-0.00106526,0.00146474,0.00106526,-0.01161993,-0.01167595,0.10200274
-0.06004227,0.05088218,0.07869581,0.99378723,0.0,0.00226369,0.00199737,-0.01115315,-0.01143322,0.10179113
-0.06049338,0.05068369,0.07993519,0.99367106,0.00093211,0.00119842,0.00013316,-0.01112203,-0.01130874,0.10162931
-0.06100353,0.05059735,0.08149086,0.99351788,-0.00013316,0.00346211,-0.00053263,-0.01129629,-0.01145811,0.10185337
-0.06072448,0.05061221,0.08152472,0.99353153,0.00026632,0.00106526,0.00013316,-0.01144567,-0.01145189,0.10202763
-0.06039071,0.05073226,0.08074649,0.99360925,-0.00053263,0.00186421,0.00133158,-0.01152658,-0.01169462,0.10188448
-0.06061821,0.05086686,0.08097034,0.99357027,-0.00013316,0.0015979,-0.00013316,-0.01126518,-0.01159504,0.10227036
-0.06111133,0.05085598,0.08244527,0.99341935,0.00013316,0.00199737,0.00039947,-0.01149546,-0.01165105,0.10172889
-0.06121351,0.05085767,0.08293365,0.99337232,0.00053263,0.00332895,-0.00199737,-0.01141455,-0.01148301,0.10214589
-0.06020245,0.05072342,0.07946678,0.99372423,0.00093211,0.00199737,0.00133158,-0.01109091,-0.01147056,0.1020961
-0.0598261,0.05085805,0.07765573,0.99388331,-0.00039947,0.00133158,0.00079895,-0.01148301,-0.01168217,0.10175379
-0.05955594,0.05087407,0.07613059,0.99401665,-0.00106526,0.00226369,0.00066579,-0.01133986,-0.01129007,0.10202763
-0.05967643,0.05091891,0.07526075,0.99407345,0.00066579,0.00226369,0.00026632,-0.01123406,-0.01163861,0.10199652
-0.06021709,0.05094756,0.07561163,0.99401271,-0.00119842,0.0015979,0.00026632,-0.01135231,-0.01148301,0.10225169
-0.06040649,0.0510076,0.07601841,0.99396706,-0.00066579,0.00173105,-0.00106526,-0.01129629,-0.01153903,0.10192183
-0.059818,0.05129069,0.07342818,0.99418277,-0.00119842,0.00173105,-0.00053263,-0.01166973,-0.01178175,0.10204008
-0.05940683,0.05148829,0.07047173,0.99441117,-0.00026632,0.00306264,-0.00039947,-0.01130874,-0.01157014,0.10200896
-0.0605082,0.05151102,0.07225445,0.99421567,-0.00079895,0.00292948,0.00093211,-0.01168217,-0.01165728,0.10235128
-0.06159787,0.05128252,0.07645235,0.99384654,0.00173105,0.00146474,-0.00133158,-0.01149546,-0.01143944,0.10216456
-0.0617148,0.05109082,0.07868239,0.99367505,0.00026632,0.00226369,0.00079895,-0.01128385,-0.01145811,0.10241351
-0.06129525,0.05112687,0.07909695,0.99366623,0.00026632,0.00279632,-0.00066579,-0.01150791,-0.0116884,0.1018347
-0.06098051,0.0509845,0.07936253,0.99367177,0.00026632,0.0015979,-0.00013316,-0.01152658,-0.01161993,0.10194673
-0.06160648,0.05055475,0.08323094,0.99333858,-0.00013316,0.00306264,0.00119842,-0.01142077,-0.01169462,0.1019654
-0.06176472,0.05049532,0.08547997,0.99314082,-0.00013316,0.00133158,0.0,-0.01151413,-0.01173196,0.1015235
-0.06059554,0.05064568,0.08300494,0.99341506,0.00093211,0.00039947,-0.00119842,-0.0112465,-0.01155147,0.10185959
-0.06019211,0.05084197,0.08107074,0.99358922,0.00066579,0.00093211,0.00119842,-0.0116635,-0.01182532,0.10208987
-0.06058512,0.05091704,0.08128548,0.99354392,-0.0015979,0.00319579,0.00013316,-0.01163861,-0.01173196,0.10177868
-0.06070783,0.05085154,0.08181276,0.99349654,-0.00093211,0.00306264,0.00053263,-0.01125273,-0.01146434,0.10200274
-0.06076197,0.05087087,0.08164617,0.9935059,-0.00013316,0.00346211,0.00039947,-0.01157637,-0.0115328,0.10249443
-0.0604527,0.05070327,0.08123257,0.99356729,-0.00079895,0.00079895,0.00039947,-0.01109713,-0.01140832,0.10190316
-0.06021269,0.05074641,0.07977168,0.99369806,-0.00053263,0.00053263,-0.00039947,-0.01132119,-0.01162616,0.10200274
-0.06002601,0.05102867,0.07756916,0.99386925,0.00026632,0.00146474,0.0,-0.01125273,-0.01153903,0.10200896
-0.05985887,0.05095258,0.07631624,0.99398029,0.00039947,0.00186421,0.00106526,-0.01122783,-0.01146434,0.10213344
-0.06010083,0.05101885,0.0756697,0.99401164,0.00013316,0.00199737,0.00053263,-0.01165105,-0.01150791,0.10210232
-0.05999104,0.05113913,0.07529637,0.99404043,0.00053263,0.00253,0.00013316,-0.01121539,-0.01149546,0.10195295
-0.06174682,0.05100459,0.08071674,0.99351436,-0.00026632,0.00186421,0.0015979,-0.01143322,-0.01164483,0.10188448
-0.06216834,0.05071275,0.08372462,0.99325401,-0.00039947,0.00266316,0.00093211,-0.01142077,-0.01159504,0.10162309
-0.0607862,0.05068149,0.08150299,0.99352592,-0.00026632,0.00146474,0.0,-0.01129629,-0.01154525,0.10221435
-0.06022078,0.05079903,0.07945421,0.99372023,-0.00093211,0.00226369,0.00119842,-0.01137098,-0.01165105,0.10191561
-0.05975552,0.05083886,0.07760552,0.99389243,-0.00186421,0.00039947,0.00013316,-0.0115577,-0.0115577,0.10214589
-0.05969012,0.05118197,0.07614429,0.99399173,-0.00053263,0.00119842,-0.00093211,-0.01148923,-0.0115328,0.10219568
-0.06017549,0.05102431,0.07664634,0.99393201,-0.00093211,0.00386158,0.00146474,-0.01148301,-0.01166973,0.10206498
-0.0608243,0.05113383,0.07801055,0.99378073,0.00026632,0.00372843,0.00053263,-0.01171329,-0.01176931,0.10194051
-0.06078658,0.05109554,0.07791092,0.99379283,0.00079895,0.00239685,0.00066579,-0.01143322,-0.01164483,0.10222057
-0.0602541,0.05110951,0.07573012,0.99399304,0.00079895,0.00386158,-0.00066579,-0.01156392,-0.01176308,0.10212722
-0.06006197,0.0510705,0.07470564,0.9940843,-0.00106526,0.00213053,-0.00013316,-0.01113447,-0.01155147,0.10197785
-0.06014166,0.05090331,0.07565857,0.99401593,-0.00133158,0.0041279,0.00119842,-0.01133986,-0.01150168,0.10195295
-0.06055393,0.05104956,0.07617163,0.99394423,0.00053263,0.00106526,-0.00013316,-0.01134609,-0.01183777,0.10200274
-0.06047615,0.05110733,0.07608023,0.99395299,-0.00093211,0.00119842,-0.00039947,-0.01161371,-0.01174441,0.10170399
-0.06061977,0.05134471,0.07601893,0.99393678,-0.00093211,0.00186421,0.00039947,-0.01132741,-0.01158882,0.10202141
-0.06106635,0.0510925,0.07867845,0.99371529,-0.00013316,0.00119842,0.00079895,-0.01168217,-0.01149546,0.10232016
-0.06136928,0.05108268,0.08055394,0.9935469,0.00026632,0.00066579,0.00199737,-0.01124028,-0.01163861,0.10191561
-0.06170425,0.05071639,0.08348353,0.99330306,-0.00013316,0.00146474,0.00053263,-0.01134609,-0.01158259,0.10226414
-0.06197166,0.05053779,0.08602808,0.99307835,-0.00133158,0.00253,0.00013316,-0.01126518,-0.01153903,0.10190938
-0.06160318,0.05070664,0.08566328,0.99312419,-0.00066579,0.00146474,-0.00013316,-0.01170707,-0.01190001,0.10208365
-0.06067551,0.0506717,0.08299756,0.99340945,-0.00173105,0.00239685,-0.0015979,-0.01140832,-0.01158882,0.10203386
-0.06053812,0.05079457,0.08222322,0.99347597,-0.00199737,0.00239685,0.00026632,-0.01163861,-0.01159504,0.10214589
-0.06113495,0.05052052,0.08432599,0.99327713,0.00053263,0.00066579,0.00093211,-0.01129629,-0.01163238,0.10182847
-0.06147853,0.05036984,0.0858318,0.99313456,-0.00066579,0.00106526,0.00106526,-0.01163238,-0.01177553,0.10194673
-0.06207203,0.05009039,0.08944392,0.99279296,0.00013316,0.00066579,-0.00066579,-0.01146434,-0.0116884,0.10201519
-0.06230474,0.0499186,0.09160625,0.99258989,0.00013316,0.00066579,-0.00053263,-0.01102244,-0.01154525,0.1016542
-0.06023474,0.0501705,0.0854759,0.99325156,-0.00013316,0.00199737,0.00026632,-0.01133986,-0.01137721,0.10171644
-0.05938926,0.05036354,0.08206802,0.9935801,0.00053263,0.00292948,-0.00039947,-0.01150791,-0.01163861,0.10210232
-0.06007145,0.05036777,0.08239623,0.99351174,0.00013316,0.00133158,0.00079895,-0.01137098,-0.01159504,0.10207742
-0.06058093,0.05037326,0.08350028,0.9933883,-0.00053263,0.00146474,0.00106526,-0.01132741,-0.01168217,0.10184714
-0.05983823,0.05060415,0.08054881,0.99366516,-0.00053263,0.00079895,0.00093211,-0.01138965,-0.01160126,0.10197162
-0.05909391,0.0509518,0.07610548,0.9940421,-0.00079895,0.00199737,0.0015979,-0.0111158,-0.01139588,0.10167287
-0.05988811,0.05086372,0.07655065,0.99396497,0.0,0.0015979,0.00146474,-0.01144567,-0.01185022,0.10190316
-0.06105535,0.0505809,0.08099234,0.99355626,-0.00039947,0.00279632,0.00186421,-0.01135853,-0.01165728,0.10194673
-0.06123514,0.05068683,0.08236063,0.9934274,-0.00066579,0.00226369,0.00173105,-0.01138343,-0.01135853,0.10230149
-0.05972445,0.05095422,0.07749958,0.99389666,-0.00133158,0.00173105,0.00213053,-0.0114021,-0.01178175,0.10176001
-0.05940242,0.0510288,0.07462453,0.9941321,0.0,0.00146474,-0.00026632,-0.01145811,-0.01175064,0.10176624
-0.05945059,0.05122773,0.07335057,0.99421382,0.0,0.00093211,-0.00039947,-0.01141455,-0.01175686,0.10172267
-0.05955622,0.05122396,0.07255366,0.99426609,-0.00093211,0.00346211,0.00039947,-0.01148923,-0.01160126,0.10204631
-0.05976363,0.0512345,0.07191049,0.99429995,-0.00013316,0.00266316,0.00173105,-0.01149546,-0.0115577,0.10198407
-0.05981093,0.05117825,0.07144586,0.99433339,-0.00066579,0.0,0.00106526,-0.01154525,-0.01181288,0.10181603
-0.05999446,0.05149586,0.07070253,0.99435914,0.00013316,0.00319579,0.00039947,-0.01148301,-0.01164483,0.10204631
-0.06013472,0.05159201,0.06990888,0.99440175,-0.00093211,0.00253,-0.00026632,-0.01148301,-0.01155147,0.10210232
-0.06025432,0.05136792,0.0708759,0.99433768,-0.00066579,0.00226369,-0.00039947,-0.011427,-0.01183155,0.10195918
-0.06071737,0.05125051,0.07301066,0.99416107,-0.00013316,0.00319579,0.00119842,-0.01125273,-0.01138343,0.10194673
-0.06091162,0.05133132,0.07410776,0.99406391,0.0,0.00253,-0.00013316,-0.01143322,-0.01169462,0.10197785
-0.06067165,0.05140904,0.07418985,0.99406844,-0.00039947,0.00119842,-0.00053263,-0.01145811,-0.01154525,0.1020712
-0.06069601,0.05114736,0.0741992,0.99407971,0.00106526,0.00372843,0.00013316,-0.0115577,-0.01161993,0.10185337
-0.06018972,0.05105492,0.07355516,0.9941631,-0.00079895,0.00186421,0.00173105,-0.01135853,-0.01150791,0.10210232
-0.06023403,0.05124762,0.07317563,0.99417847,-0.00013316,0.00266316,0.00026632,-0.01130874,-0.01159504,0.10206498
-0.06107521,0.05128087,0.07521235,0.99397343,-0.00013316,0.00066579,-0.00039947,-0.01134609,-0.01162616,0.10205875
-0.06123072,0.051224,0.076793,0.993846,0.0,0.00372843,0.00026632,-0.01149546,-0.01166973,0.10182225
-0.0609231,0.05098611,0.07716266,0.99384844,-0.00053263,0.00266316,0.0015979,-0.01114692,-0.01141455,0.10202141
-0.06065543,0.05098685,0.07716998,0.99386424,0.00199737,0.00239685,0.00066579,-0.01150791,-0.01137098,0.10215834
-0.06094711,0.05095768,0.07837749,0.99375343,-0.00026632,0.00306264,0.0,-0.01118426,-0.01166973,0.10221435
-0.06123083,0.05092951,0.0804397,0.99357259,0.00066579,0.00399474,-0.00026632,-0.01131497,-0.01141455,0.10192183
-0.06103181,0.05125004,0.07997838,0.99360555,-0.00053263,0.00292948,0.00186421,-0.01176308,-0.01169462,0.10205875
-0.0596148,0.05152988,0.07543448,0.99403244,0.0,0.00119842,-0.00066579,-0.01159504,-0.01146434,0.1018347
-0.05961234,0.05154857,0.07369546,0.99416208,0.00106526,0.00306264,-0.00053263,-0.01160126,-0.01143944,0.10213344
-0.06142152,0.05118533,0.07968779,0.9936083,0.00106526,0.00079895,-0.00039947,-0.01139588,-0.01163238,0.10205875
-0.06201441,0.05112756,0.08303711,0.99330008,0.0,0.00266316,-0.00026632,-0.0116884,-0.01172574,0.1022019
-0.06097622,0.05117982,0.08031528,0.99358553,0.00106526,0.00039947,0.00093211,-0.01147679,-0.01176308,0.10144882
-0.06056659,0.05111356,0.07873987,0.99374002,0.00039947,0.00559264,0.00013316,-0.01143944,-0.01161371,0.10221435
-0.0599202,0.05125428,0.07627871,0.9939639,0.0,0.00119842,0.00079895,-0.01158882,-0.0116635,0.10170399
-0.05983007,0.05144622,0.07465876,0.99408239,-0.00053263,0.00306264,0.00066579,-0.01161371,-0.01163861,0.10226414
-0.05918529,0.05150542,0.07160204,0.99434274,0.0,0.00173105,0.00013316,-0.01141455,-0.01160749,0.10238862
-0.05872386,0.05143873,0.06888054,0.99456584,-0.00026632,0.00053263,0.00026632,-0.01153903,-0.01152035,0.10154217
-0.05971957,0.05151749,0.06988406,0.99443233,-0.00026632,0.00173105,0.0,-0.01157637,-0.01180665,0.10208987
-0.06100317,0.05127481,0.07391829,0.99407536,0.00026632,0.00266316,-0.00213053,-0.01144567,-0.01161371,0.10208987
-0.06141905,0.05139747,0.075821,0.99390006,0.00039947,0.00266316,0.0,-0.01148923,-0.01185644,0.10216456
-0.06118385,0.05139925,0.07571131,0.99392277,0.00106526,0.00279632,0.00146474,-0.01161993,-0.01170707,0.1019654
-0.06092137,0.05126416,0.07566944,0.99394912,-0.00119842,0.0015979,-0.00066579,-0.01157637,-0.01158259,0.10160442
-0.06112298,0.0510826,0.07789868,0.99377388,0.00053263,0.00266316,0.00133158,-0.01128385,-0.01150791,0.10182225
-0.06100892,0.05095686,0.07927191,0.99367875,0.00039947,0.0015979,0.00093211,-0.0114021,-0.01148301,0.10176001
-0.05957489,0.05103318,0.07470167,0.99411583,-0.00026632,0.00213053,0.00079895,-0.01153903,-0.01161993,0.10192806
-0.05916101,0.05122854,0.07129193,0.99438071,0.00039947,0.00372843,-0.00053263,-0.01164483,-0.01188756,0.1015733
-0.06013586,0.05110767,0.07265437,0.99422991,-0.00079895,0.00306264,-0.00079895,-0.01152658,-0.01163861,0.10197785
-0.06108553,0.05136035,0.07508168,0.99397862,0.00133158,0.00213053,0.00146474,-0.01137721,-0.01157637,0.10161064
-0.06087401,0.05113545,0.07609103,0.99392641,-0.00079895,0.00119842,-0.00146474,-0.01116559,-0.01168217,0.10227036
-0.06064194,0.05102639,0.07638657,0.9939236,-0.00079895,0.00186421,0.00013316,-0.01135853,-0.01149546,0.10207742
-0.06143099,0.05096256,0.07825045,0.99373341,0.00039947,0.00053263,0.00053263,-0.01122783,-0.01162616,0.10219568
-0.06267723,0.05081782,0.08385465,0.99320573,-0.00146474,0.00119842,-0.00039947,-0.01131497,-0.01157637,0.10215834
-0.06244152,0.05069082,0.08650672,0.99299955,-0.00013316,-0.00039947,0.00093211,-0.01149546,-0.01163861,0.10210855
-0.06027405,0.05073826,0.08093941,0.99360031,-0.00013316,0.00173105,0.00053263,-0.01146434,-0.01184399,0.10210232
-0.05963865,0.05097208,0.07763248,0.99389046,0.00053263,0.00186421,0.00039947,-0.01121539,-0.01155147,0.10194673
-0.06044564,0.0509025,0.07921217,0.99372065,0.00039947,0.00306264,0.00039947,-0.01139588,-0.01166973,0.10195295
-0.06072303,0.05083143,0.08009044,0.99363703,0.00053263,0.00279632,0.00053263,-0.01132741,-0.01146434,0.10215212
-0.06127916,0.05050263,0.08255748,0.99341768,0.00013316,0.00199737,0.00079895,-0.01135231,-0.01160126,0.10182225
-0.0616015,0.05050543,0.0847562,0.99321246,-0.00039947,0.00279632,0.0015979,-0.01154525,-0.01171952,0.10177868
-0.06127911,0.05047853,0.08451489,0.9932543,-0.00133158,0.00253,-0.00026632,-0.01147679,-0.01168217,0.10202141
-0.06077123,0.05054115,0.08337758,0.9933784,0.0,0.00399474,-0.00039947,-0.01141455,-0.01152658,0.10162309
-0.06050754,0.05076957,0.08230547,0.99347228,0.00119842,0.00253,0.00026632,-0.01143322,-0.01166973,0.10232016
-0.06028836,0.0506806,0.08110289,0.99358904,0.00053263,0.00479369,-0.00026632,-0.01137721,-0.01127762,0.10155462
-0.06051835,0.05085028,0.08070365,0.99359894,-0.00106526,0.00372843,0.00093211,-0.01125895,-0.01176308,0.10201519
-0.06123492,0.0507557,0.08258665,0.9934051,-0.00093211,0.00372843,0.00039947,-0.01133364,-0.01157637,0.10215834
-0.06126726,0.05065686,0.08364359,0.99331975,0.0015979,0.00253,0.00173105,-0.01151413,-0.01175686,0.10204631
-0.06111658,0.05071659,0.08350234,0.99333775,0.00066579,0.00253,0.00066579,-0.01161371,-0.01163861,0.10203386
-0.06097524,0.05065941,0.0834246,0.99335599,-0.0015979,0.00306264,0.00026632,-0.01139588,-0.01135853,0.10202141
-0.0608629,0.05052329,0.08252521,0.99344492,-0.00186421,0.00319579,0.00026632,-0.01146434,-0.01160126,0.10188448
-0.06075169,0.05082425,0.08168215,0.99350601,0.00039947,0.00013316,-0.00066579,-0.0115328,-0.01160749,0.10207742
-0.06013671,0.05077718,0.07987884,0.9936924,-0.00133158,0.0041279,-0.00093211,-0.01136476,-0.01143322,0.1023575
-0.06021518,0.05113411,0.07786629,0.99382919,0.00013316,0.00372843,-0.00173105,-0.01162616,-0.01173819,0.10211477
-0.06053249,0.05100727,0.07805383,0.99380159,0.0,0.00186421,0.00173105,-0.01113447,-0.0115577,0.10217701
-0.06114013,0.05061579,0.0809361,0.99355394,0.0,0.00119842,0.00146474,-0.01121539,-0.01150791,0.10184092
-0.06129545,0.05071985,0.08238701,0.99341983,-0.00039947,0.00199737,0.00066579,-0.01160749,-0.01158259,0.10204631
-0.06095795,0.05067976,0.08194109,0.99347943,-0.00133158,0.00106526,0.00026632,-0.01119671,-0.01135853,0.10180358
-0.06112363,0.05094178,0.08169745,0.99347591,-0.00106526,0.00053263,0.00039947,-0.01139588,-0.01158882,0.10182847
-0.06018586,0.05094554,0.07980635,0.99368662,-0.00079895,0.00332895,0.00146474,-0.01142077,-0.01143322,0.10189071
-0.06021667,0.05098933,0.07867658,0.99377263,-0.00093211,0.00306264,0.00133158,-0.01146434,-0.01181288,0.10184092
-0.06088638,0.0508647,0.0804444,0.99359667,-0.00093211,0.00133158,0.00053263,-0.01128385,-0.01168217,0.10193428
-0.06121249,0.05075395,0.08226125,0.99343354,-0.00053263,0.00066579,-0.00053263,-0.01144567,-0.01160749,0.1018347
-0.06150888,0.0505985,0.08427385,0.99325454,0.00039947,0.0,0.00013316,-0.01151413,-0.01173819,0.10198407
-0.06159282,0.05053793,0.08612183,0.99309385,-0.00053263,0.00332895,0.00119842,-0.01129629,-0.01155147,0.10190938
-0.06130034,0.05048731,0.08624507,0.99310374,-0.00106526,0.00093211,-0.00026632,-0.01127762,-0.01162616,0.1020712
-0.06055556,0.05047761,0.08444313,0.99330479,-0.00039947,0.00213053,0.00079895,-0.01154525,-0.01174441,0.10174756
-0.06042245,0.0504246,0.08317174,0.99342281,0.00106526,0.00146474,-0.00066579,-0.01134609,-0.01141455,0.102121
-0.05971943,0.0505853,0.0803248,0.9936915,0.00066579,0.00239685,0.00053263,-0.01143944,-0.0116884,0.10161686
-0.05986433,0.05076968,0.0787194,0.99380177,0.0,0.00173105,-0.00119842,-0.01130252,-0.0115328,0.10197785
-0.06011161,0.05081499,0.07874198,0.99378282,0.00173105,0.00173105,-0.00053263,-0.01118426,-0.01142077,0.10210855
-0.06045584,0.05107231,0.07872708,0.99374998,-0.00066579,0.00306264,0.0,-0.01152035,-0.01150791,0.1018347
-0.05987639,0.05107997,0.07630829,0.9939732,0.00133158,0.00119842,-0.00213053,-0.01162616,-0.01195602,0.10197162
-0.05968373,0.0511378,0.07407024,0.99415112,0.00039947,0.00346211,-0.00053263,-0.01143322,-0.01163238,0.10194051
-0.05994348,0.05131521,0.07322874,0.99418867,0.00053263,0.0015979,0.0015979,-0.01135853,-0.01157637,0.10200274
-0.06001412,0.05101677,0.07310019,0.99420929,0.00053263,0.00079895,-0.00026632,-0.0112465,-0.01156392,0.10192806
-0.06078829,0.05113104,0.0745728,0.99404699,0.00106526,0.00306264,0.00133158,-0.01139588,-0.01155147,0.10242596
-0.06185582,0.05097122,0.07886306,0.99365819,0.00039947,0.00319579,0.00026632,-0.01128385,-0.0115328,0.10182847
-0.0618688,0.05092079,0.08128217,0.99346489,0.00039947,0.00119842,0.0,-0.01148923,-0.01170085,0.1020961
-0.06175894,0.05081116,0.08238492,0.99338651,0.00066579,0.00253,0.00026632,-0.01138343,-0.01154525,0.1016542
-0.06155847,0.05082117,0.08304933,0.99334323,0.00013316,0.00292948,0.00093211,-0.01132741,-0.01168217,0.10199652
-0.06028252,0.05100849,0.07925463,0.99372178,-0.00039947,0.00292948,0.00066579,-0.01150168,-0.01171952,0.10204631
-0.05994895,0.0511018,0.07710011,0.99390668,-0.00079895,0.00039947,-0.00039947,-0.01131497,-0.01159504,0.10189693
-0.06046666,0.05097577,0.07739598,0.9938587,-0.00053263,0.00253,0.0,-0.01136476,-0.01178798,0.10176624
-0.06062603,0.0511072,0.07820477,0.99377894,-0.00079895,0.00173105,-0.00013316,-0.01160126,-0.01175064,0.1019654
-0.06084032,0.05098767,0.07877181,0.99372727,-0.00039947,0.00279632,0.00146474,-0.01152035,-0.01177553,0.10211477
-0.06111257,0.05101129,0.07921961,0.99367368,-0.00039947,0.00093211,-0.00053263,-0.0115328,-0.01173196,0.10189693
-0.06102474,0.05090953,0.07918879,0.9936868,-0.00106526,0.00253,-0.00106526,-0.01128385,-0.0116635,0.10214589
-0.06070776,0.05081693,0.07865433,0.99375337,0.00053263,0.00213053,0.00106526,-0.01147056,-0.01170085,0.10208365
-0.060626,0.05079674,0.07865728,0.99375921,-0.00093211,0.00146474,0.0,-0.01130874,-0.01165728,0.10185959
-0.06124033,0.05077315,0.08118129,0.99351972,-0.00173105,0.00106526,-0.00013316,-0.01147679,-0.01148923,0.10214589
-0.06137863,0.05084157,0.08270506,0.99338198,0.00026632,0.0015979,0.00106526,-0.01169462,-0.01180043,0.10173512
-0.06084349,0.05110702,0.08098675,0.99354279,-0.00026632,0.00239685,0.00066579,-0.01133364,-0.01158882,0.10187826
-0.06056385,0.05102829,0.0799636,0.99364686,0.00093211,0.00119842,-0.00053263,-0.01129007,-0.01163861,0.10175379
-0.06135341,0.05075911,0.08206239,0.99344105,-0.00133158,0.00133158,0.0,-0.01135853,-0.01152658,0.10171644
-0.06173078,0.05087928,0.08435423,0.99321949,0.00013316,0.00306264,0.0,-0.01138965,-0.01149546,0.10174756
-0.0609486,0.05078802,0.08290076,0.99339479,-0.00066579,0.00346211,-0.00013316,-0.01128385,-0.0116635,0.10195295
-0.06013581,0.05109937,0.07945924,0.99370956,-0.00013316,0.00332895,0.0,-0.01156392,-0.01160749,0.10173512
-0.05974536,0.05124269,0.07663383,0.99394763,-0.00053263,0.00266316,0.0,-0.0115328,-0.01171952,0.1019654
-0.05918581,0.05133025,0.07318676,0.99423635,0.00039947,0.00266316,0.00253,-0.01150791,-0.01161371,0.10211477
-0.05942968,0.05122733,0.07157051,0.99434483,-0.00013316,0.00199737,0.0,-0.0112465,-0.01182532,0.10204008
-0.06039314,0.05089545,0.07569089,0.99399859,0.00039947,0.00173105,0.00039947,-0.01147056,-0.01148923,0.10193428
-0.06088565,0.05086223,0.07788197,0.99380106,-0.00013316,0.00106526,0.0,-0.01123406,-0.01154525,0.10203386
-0.05998108,0.05097776,0.07494793,0.9940756,-0.00119842,0.00279632,0.00079895,-0.01125895,-0.01154525,0.10172889
-0.05983681,0.05126062,0.07334146,0.99418956,-0.00119842,0.00199737,-0.00066579,-0.01138965,-0.01170707,0.10200896
-0.06067235,0.0511269,0.07601926,0.9939447,0.00053263,0.00319579,0.00026632,-0.01149546,-0.01175686,0.1022019
-0.061311,0.05109742,0.07868128,0.99369985,0.0,0.00346211,-0.00133158,-0.01155147,-0.0116884,0.10187826
-0.06035095,0.05110059,0.07697168,0.99389225,-0.00026632,0.00093211,0.00079895,-0.0112465,-0.01153903,0.10218946
-0.05959803,0.05126934,0.07371444,0.99417597,-0.00053263,0.00213053,-0.00013316,-0.01129629,-0.01143944,0.1020712
-0.05948798,0.05131668,0.07164107,0.9943316,0.0,0.00319579,-0.00013316,-0.01147679,-0.01175686,0.10213967
-0.0591782,0.05144402,0.07000292,0.99446017,-0.00039947,0.00306264,-0.00053263,-0.01153903,-0.01139588,0.10215212
-0.05974236,0.05156064,0.06973786,0.99443907,0.00053263,0.00226369,-0.00039947,-0.01139588,-0.01167595,0.10169777
-0.06154953,0.05157955,0.07606042,0.99386418,0.0,0.0015979,0.00119842,-0.01139588,-0.01152035,0.10204631
-0.06201626,0.05121048,0.07978985,0.99356192,0.00079895,0.00306264,-0.00093211,-0.01147679,-0.01173819,0.10207742
-0.06038444,0.0510345,0.07596887,0.99397087,-0.00093211,0.00332895,-0.00066579,-0.01137098,-0.01168217,0.10186581
-0.05994217,0.05112766,0.07373779,0.99416077,0.00133158,0.00173105,-0.00013316,-0.01131497,-0.01181288,0.10167287
-0.06003915,0.0512179,0.07335027,0.99417901,0.00079895,0.00306264,-0.00133158,-0.01143322,-0.01171952,0.10191561
-0.0599291,0.05110114,0.07349823,0.99418068,0.00039947,0.00146474,-0.00053263,-0.01125895,-0.01157014,0.10197785
-0.06051905,0.05123247,0.07462955,0.99405396,0.00093211,0.00133158,0.00013316,-0.01154525,-0.01190001,0.10204008
-0.06117684,0.0513849,0.07627732,0.99388063,0.00013316,0.00133158,-0.00013316,-0.01150168,-0.01160126,0.10178491
-0.06109814,0.05108369,0.07737134,0.99381655,-0.00079895,0.00226369,0.00093211,-0.01137098,-0.01148301,0.10225792
-0.06105705,0.0510625,0.07852979,0.99372917,0.00026632,0.00426106,-0.00146474,-0.0116635,-0.01181288,0.10230771
-0.06137962,0.05116397,0.0795031,0.99362677,0.00039947,0.00213053,-0.00039947,-0.01170707,-0.01162616,0.10189071
-0.06188339,0.05095677,0.08260778,0.99335289,0.00026632,0.00266316,-0.00026632,-0.01150168,-0.01171329,0.10184714
-0.0618109,0.05080514,0.08432202,0.99322104,-0.00106526,0.00306264,0.00119842,-0.01126518,-0.0114021,0.10181603
-0.06081424,0.05084708,0.08247672,0.99343538,0.00239685,0.00226369,-0.00039947,-0.01148301,-0.01169462,0.10179113
-0.06038092,0.05075447,0.08134912,0.9935596,-0.00013316,0.00346211,-0.00186421,-0.01150791,-0.01158259,0.10208987
-0.05966131,0.05084762,0.07769285,0.99389088,-0.00093211,0.00372843,0.0,-0.011427,-0.0119249,0.10169155
-0.05940462,0.05116261,0.07456595,0.99412954,-0.00093211,0.00239685,-0.00039947,-0.01165105,-0.01178175,0.10201519
-0.06021625,0.05109901,0.0757174,0.99399692,-0.00053263,0.00133158,-0.00039947,-0.01154525,-0.0116884,0.1016791
-0.06089152,0.051183,0.07833247,0.99374872,0.00106526,0.00279632,-0.00013316,-0.0115328,-0.01126518,0.1018347
-0.06111932,0.05091077,0.079853,0.99362773,-0.00039947,0.00039947,0.00119842,-0.01162616,-0.01165728,0.10218323
-0.06129793,0.05110624,0.08065368,0.99354202,0.00066579,0.00226369,-0.00119842,-0.01150791,-0.01180665,0.10188448
-0.06099568,0.05099215,0.08108,0.99353182,0.00239685,0.00186421,-0.00106526,-0.01139588,-0.01158259,0.10186581
-0.06103512,0.05095775,0.0809961,0.99353796,0.00066579,0.00213053,0.00093211,-0.01153903,-0.01165105,0.10208365
-0.06084912,0.05073992,0.08095385,0.99356401,0.00079895,0.00146474,-0.00119842,-0.01112825,-0.01177553,0.1018098
-0.06089525,0.05050948,0.08202066,0.99348539,0.00119842,0.00253,0.00013316,-0.01138343,-0.01167595,0.10203386
-0.06142695,0.05062485,0.082591,0.99339956,-0.00119842,0.00346211,0.00199737,-0.01148301,-0.01183155,0.10182225
-0.06125472,0.05070627,0.08247527,0.99341571,-0.00053263,0.00173105,0.00079895,-0.01156392,-0.01159504,0.10194673
-0.06119724,0.05084426,0.08237305,0.9934206,-0.00093211,0.0015979,0.00053263,-0.01172574,-0.01165728,0.10208987
-0.06055417,0.05097719,0.08045276,0.99361062,0.00093211,0.00266316,-0.00066579,-0.01159504,-0.01173819,0.10218323
-0.06003256,0.05109911,0.07848497,0.99379331,0.00119842,0.00226369,-0.00013316,-0.01139588,-0.01117182,0.10193428
-0.05988851,0.05142603,0.07566643,0.99400371,-0.00186421,0.00039947,0.00026632,-0.0115328,-0.01180665,0.10207742
-0.05938471,0.0515708,0.07218611,0.99428523,-0.00039947,0.0041279,0.00026632,-0.01177553,-0.01185022,0.10199652
-0.0596267,0.05132541,0.07107893,0.99436325,-0.00239685,0.00079895,-0.00079895,-0.01122161,-0.01156392,0.10205253
-0.06060312,0.05128,0.07352001,0.99412906,-0.00026632,0.00173105,0.00079895,-0.01161371,-0.01169462,0.10188448
-0.06090825,0.0513022,0.07486272,0.99400902,0.00066579,0.00292948,-0.00066579,-0.01146434,-0.01178798,0.10176624
-0.0624065,0.05095077,0.08119521,0.99343687,-0.00053263,0.00319579,0.00066579,-0.01132741,-0.0115328,0.10197162
-0.06272191,0.05061556,0.08500397,0.99311548,0.00053263,0.00239685,0.0,-0.0114021,-0.01173819,0.10179735
-0.06212193,0.05087064,0.08474592,0.99316221,-0.00133158,0.00386158,-0.00079895,-0.01141455,-0.01191246,0.10179113
-0.06131471,0.05075185,0.08429856,0.99325657,0.00026632,0.00319579,0.0,-0.01133364,-0.01135231,0.10177868
-0.06020119,0.050906,0.08109841,0.9935832,-0.00013316,0.00119842,-0.00146474,-0.01151413,-0.01188134,0.10177246
-0.05971471,0.05108815,0.07816032,0.99383861,0.00079895,0.00146474,-0.00106526,-0.01138965,-0.0115577,0.10201519
-0.05963466,0.05106635,0.07643252,0.99397898,0.00013316,0.00266316,0.00066579,-0.01127762,-0.01138343,0.10179113
-0.05961432,0.0512402,0.0753814,0.99405146,-0.00039947,0.00332895,-0.00053263,-0.01148301,-0.01156392,0.10202141
-0.0603168,0.05118673,0.07598022,0.99396628,0.00026632,0.00239685,-0.00013316,-0.01139588,-0.01156392,0.1023575
-0.06133232,0.05108496,0.07907366,0.99366802,-0.00013316,0.00292948,-0.00053263,-0.01140832,-0.01172574,0.10199652
-0.06128379,0.05109774,0.07982881,0.99360996,0.00053263,0.00173105,0.00106526,-0.01152035,-0.01188134,0.10218946
-0.0602606,0.05129926,0.07577156,0.99397981,0.00039947,0.0015979,0.00119842,-0.01143944,-0.01191246,0.10202141
-0.05963002,0.05113719,0.07336917,0.99420643,0.00053263,0.00239685,-0.00053263,-0.01125895,-0.01162616,0.1020961
-0.06080958,0.05114722,0.07642394,0.99390429,0.00133158,0.00199737,0.00026632,-0.01152658,-0.0116884,0.10186581
-0.06140635,0.0512651,0.07807738,0.99373287,-0.00039947,0.0,-0.00066579,-0.01144567,-0.01176931,0.10198407
-0.0623878,0.05119668,0.08225275,0.99333841,-0.0015979,0.00226369,-0.00066579,-0.01154525,-0.01173819,0.10215834
-0.06265252,0.05087338,0.08577715,0.9930402,-0.00053263,0.00292948,0.00119842,-0.01175064,-0.0116884,0.10179735
-0.0613515,0.05092488,0.08342165,0.99331945,-0.00079895,0.00119842,-0.00093211,-0.01155147,-0.01160126,0.10200896
-0.06024424,0.05109659,0.0787998,0.99375576,0.00066579,0.00279632,-0.00066579,-0.01158882,-0.0115328,0.10181603
-0.06030236,0.05108346,0.07793447,0.99382114,-0.00119842,0.00332895,0.00013316,-0.01137098,-0.0115328,0.10215834
-0.06096819,0.05100748,0.07992899,0.99362594,0.00039947,0.00359527,0.00066579,-0.01160126,-0.01183777,0.10191561
-0.06125927,0.05106901,0.08100364,0.99351782,0.00013316,0.00346211,0.00093211,-0.01159504,-0.01180043,0.10218323
-0.06110778,0.05099342,0.08149331,0.99349105,0.00013316,0.00359527,-0.00026632,-0.01158882,-0.01142077,0.10204631
-0.06134997,0.05101509,0.08175287,0.99345362,0.0,0.00053263,-0.00146474,-0.01139588,-0.01183777,0.10179113
-0.06118374,0.05113015,0.08159801,0.99347073,-0.00146474,0.00226369,0.00119842,-0.01148301,-0.01165105,0.10174756
-0.06104979,0.05095303,0.08152805,0.99349385,-0.00026632,0.00119842,0.00133158,-0.0114021,-0.01173196,0.10195295
-0.06074236,0.05080462,0.08102278,0.99356163,-0.00079895,0.00226369,0.00119842,-0.01120294,-0.01176931,0.10236995
-0.06067285,0.05096039,0.0806803,0.99358571,-0.00093211,0.0015979,0.00119842,-0.01148301,-0.01148923,0.10197162
-0.06051625,0.05104432,0.08010766,0.99363738,0.00053263,0.00053263,-0.00013316,-0.01156392,-0.01175686,0.10185959
-0.06060773,0.05114644,0.07956354,0.99367023,0.00013316,0.00266316,0.00106526,-0.01137098,-0.01148923,0.10215834
-0.06064665,0.05135752,0.0790558,0.99369752,0.00093211,0.00466053,-0.00079895,-0.01165105,-0.0119498,0.10238862
-0.06075418,0.05138989,0.07855858,0.99372864,0.00093211,0.00292948,0.0,-0.01160749,-0.01181288,0.10178491
-0.06026682,0.05137487,0.07734117,0.99385464,-0.00039947,0.00066579,0.00133158,-0.011427,-0.01161993,0.10240729
-0.05945718,0.05156128,0.07326278,0.99420267,-0.00093211,0.00106526,0.00079895,-0.01181288,-0.01169462,0.10178491
-0.0594186,0.05183752,0.07098781,0.99435556,0.00053263,0.00239685,-0.00039947,-0.01158882,-0.01170085,0.1018098
-0.06182339,0.0516829,0.07830784,0.9936673,0.00133158,0.00199737,0.00119842,-0.01150791,-0.01158259,0.1018347
-0.06244608,0.05125638,0.08222073,0.99333429,0.00119842,0.00199737,0.00093211,-0.01129629,-0.01171952,0.10162309
-0.06083585,0.05116399,0.07907443,0.99369437,0.00013316,0.00332895,0.00146474,-0.01156392,-0.01188134,0.10199029
-0.06022269,0.05122357,0.076593,0.99392295,0.00133158,0.00319579,-0.00013316,-0.01147056,-0.01175064,0.10176624
-0.05999912,0.05138075,0.07470396,0.9940722,0.00039947,0.00239685,-0.00026632,-0.01160126,-0.01174441,0.10236995
-0.06019351,0.05177025,0.07332212,0.99414313,-0.00066579,0.00213053,0.00133158,-0.01161371,-0.01174441,0.10189071
-0.06042942,0.05174293,0.07360931,0.99410903,-0.00039947,0.00213053,0.00119842,-0.01142077,-0.01145189,0.10194673
-0.06076291,0.05160316,0.07490394,0.99399918,-0.00146474,0.00319579,0.00066579,-0.01131497,-0.01161993,0.10187826
-0.06087629,0.05130899,0.07628413,0.9939025,-0.00079895,0.00279632,0.00026632,-0.01126518,-0.01163861,0.10197785
-0.06139511,0.05120395,0.07840341,0.99371105,-0.00026632,0.00146474,0.0,-0.01135853,-0.01157014,0.1016791
-0.06134676,0.05124757,0.07975983,0.99360389,-0.00146474,0.00346211,0.00186421,-0.01171952,-0.01163861,0.10218323
-0.06165984,0.05109023,0.08132983,0.99346536,-0.00013316,0.00133158,0.00039947,-0.011427,-0.01159504,0.10171644
-0.06148882,0.05096637,0.08222188,0.99340886,0.00079895,0.00093211,-0.00066579,-0.01137098,-0.01158259,0.10213967
-0.06094575,0.05117167,0.0811046,0.9935236,0.00119842,0.00253,-0.00106526,-0.01125895,-0.01165728,0.10189071
-0.06073729,0.05122193,0.08046971,0.99358541,-0.00026632,0.00426106,0.00066579,-0.01159504,-0.0116884,0.10199029
-0.06053887,0.05130599,0.07944019,0.99367607,-0.00013316,0.00226369,-0.00133158,-0.01133986,-0.01152035,0.10200896
-0.06043581,0.05118626,0.07864814,0.99375147,-0.00119842,0.00173105,-0.00013316,-0.01137098,-0.01167595,0.10177868
-0.06087511,0.05112969,0.07952029,0.99365819,-0.00119842,0.00146474,-0.00026632,-0.01135853,-0.01152035,0.10218323
-0.06135193,0.05119486,0.08104366,0.99350238,-0.00079895,0.00146474,0.00053263,-0.01152658,-0.0114021,0.10195918
-0.06104191,0.05123744,0.08124347,0.99350297,-0.00039947,0.00226369,-0.00026632,-0.01145811,-0.01143322,0.10230771
-0.06073688,0.05128239,0.07994452,0.99362475,-0.00013316,0.00213053,-0.00066579,-0.01157014,-0.01162616,0.1018347
-0.06072977,0.05134048,0.07905208,0.99369359,0.00079895,0.00399474,-0.00079895,-0.01137721,-0.0115328,0.10201519
-0.06035442,0.05130161,0.07732762,0.99385405,0.0,0.00239685,-0.00013316,-0.01144567,-0.01180665,0.10174756
-0.06046597,0.05143058,0.07634762,0.99391639,-0.00119842,0.00319579,0.00119842,-0.01154525,-0.01148923,0.10187826
-0.06155767,0.05144578,0.07972495,0.99358338,0.00066579,0.00226369,-0.00026632,-0.01164483,-0.01171952,0.10210855
-0.06165897,0.05134352,0.08172379,0.99342006,0.00066579,0.00173105,0.00053263,-0.01152035,-0.01161371,0.10192806
-0.0613061,0.05124725,0.08091117,0.99351335,-0.00013316,0.00013316,-0.00119842,-0.01156392,-0.0116884,0.10172889
-0.06101914,0.05122196,0.07981957,0.99362057,-0.00013316,0.00359527,-0.00026632,-0.01156392,-0.01173819,0.10204631
-0.06016875,0.05126995,0.07760777,0.99384511,0.00066579,0.00173105,0.00066579,-0.01138965,-0.0115577,0.10182847
-0.0597722,0.05126457,0.07504356,0.99406624,-0.00213053,0.00026632,-0.00039947,-0.01166973,-0.01184399,0.10223924
-0.05998095,0.05139172,0.07426217,0.99410582,-0.00039947,0.00133158,0.00013316,-0.01138343,-0.01157014,0.10191561
-0.06028717,0.05135133,0.07542025,0.99400216,-0.00106526,0.00226369,0.00173105,-0.0112465,-0.01145189,0.1018098
-0.06047711,0.05153571,0.07530499,0.99398983,0.00026632,0.00213053,0.00106526,-0.01162616,-0.01173819,0.10185337
-0.05898004,0.05184329,0.06850418,0.99455559,0.00066579,0.00226369,0.00119842,-0.0118191,-0.01176308,0.10180358
-0.05862665,0.05209546,0.06478025,0.99481291,0.00053263,0.00173105,-0.00053263,-0.01140832,-0.01146434,0.10230771
-0.06109914,0.05171576,0.07166698,0.99421144,-0.00133158,0.00093211,-0.00066579,-0.01143322,-0.01166973,0.10163553
-0.06188928,0.05153868,0.07570772,0.99387223,-0.00026632,0.00292948,0.00133158,-0.01160126,-0.01178798,0.10204631
-0.06096123,0.05148148,0.07510422,0.99397832,0.00026632,0.00346211,0.00106526,-0.0112714,-0.01177553,0.10175379
-0.06051899,0.05131672,0.07381995,0.99411011,-0.00013316,0.00186421,-0.00079895,-0.0114021,-0.01146434,0.10185337
-0.06007299,0.05146795,0.07282542,0.99420261,-0.00013316,0.00386158,-0.00079895,-0.0114021,-0.01160126,0.10203386
-0.05983652,0.05144027,0.0719166,0.99428451,-0.00026632,0.00319579,0.00026632,-0.01109091,-0.01162616,0.10169155
-0.06030644,0.05154727,0.0724019,0.99421537,0.00039947,0.00173105,0.00039947,-0.01162616,-0.01183155,0.10218323
-0.06099861,0.05160214,0.07481652,0.99399143,-0.00173105,0.00026632,-0.00026632,-0.01161993,-0.01148301,0.10199029
-0.06130651,0.05154018,0.07656956,0.99384212,-0.00106526,0.00239685,0.00079895,-0.01145189,-0.01183777,0.10207742
-0.06246237,0.05129994,0.08118316,0.99341637,-0.00053263,0.00093211,0.00026632,-0.01148923,-0.01158259,0.10190938
-0.06264602,0.05107187,0.0839676,0.99318504,-0.00093211,0.00279632,0.0015979,-0.01122161,-0.01161371,0.10188448
-0.06061434,0.05126259,0.07888626,0.99371779,-0.00013316,0.00199737,0.00146474,-0.01168217,-0.01190001,0.10187204
-0.05989287,0.05132308,0.07604527,0.99397981,0.00173105,0.0015979,0.00053263,-0.01178798,-0.01185022,0.1020961
-0.06083961,0.05135052,0.07760305,0.99380058,0.00039947,0.00186421,0.00053263,-0.01158882,-0.0116884,0.10156085
-0.06137689,0.05096265,0.0797506,0.99361742,-0.00133158,0.00239685,0.00079895,-0.01145189,-0.01169462,0.10161686
-0.06114806,0.05086422,0.07968372,0.99364197,0.00079895,0.00346211,0.00066579,-0.01152658,-0.01165105,0.10182225
-0.06088931,0.0509953,0.07845664,0.99374872,-0.00026632,0.00253,-0.00079895,-0.01132741,-0.01163238,0.10194051
-0.06098809,0.05087733,0.0788604,0.99371684,-0.00146474,0.0015979,0.00146474,-0.01133364,-0.01165105,0.10194673
-0.06138894,0.05111244,0.08069409,0.99353284,0.0,0.00199737,0.00079895,-0.01146434,-0.0116884,0.10200896
-0.06128069,0.05113536,0.08142193,0.99347901,-0.00186421,0.00226369,0.00106526,-0.01167595,-0.01147679,0.10214589
-0.06100331,0.05108364,0.08061356,0.99356461,-0.00106526,0.00266316,-0.00053263,-0.01154525,-0.01176308,0.10181603
-0.06081121,0.05106513,0.08013237,0.99361628,-0.00146474,0.00066579,-0.00039947,-0.01134609,-0.01166973,0.10164176
-0.06108535,0.05114881,0.0810129,0.99352366,0.00066579,0.00093211,-0.00053263,-0.01157014,-0.01178798,0.10205253
-0.06113583,0.05138016,0.08150511,0.99346834,0.00039947,0.00226369,0.00093211,-0.01180043,-0.01176931,0.10193428
-0.05941774,0.05167175,0.07617062,0.99398077,-0.00053263,0.00279632,0.00013316,-0.01145811,-0.01155147,0.10182225
-0.05896999,0.05194927,0.07162903,0.99433053,0.00079895,0.00239685,0.00066579,-0.01158882,-0.01186889,0.10193428
-0.05950188,0.05201008,0.07070859,0.99436158,0.00026632,0.00332895,0.00026632,-0.01150791,-0.01173196,0.10173512
-0.06002219,0.0516534,0.07117861,0.99431533,0.00053263,0.00066579,0.00013316,-0.01121539,-0.0118191,0.10195295
-0.06054248,0.05191188,0.07120794,0.99426824,-0.00013316,0.0015979,0.00039947,-0.01165105,-0.01160126,0.10177246
-0.06065843,0.05189446,0.07095254,0.99428034,-0.00093211,0.0015979,-0.00079895,-0.01151413,-0.01185644,0.10187204
-0.06108557,0.05175206,0.07285777,0.99412382,-0.00106526,0.00079895,-0.00106526,-0.01145189,-0.0116884,0.10200896
-0.06275466,0.0514282,0.07935687,0.99353892,-0.00079895,0.00319579,-0.00106526,-0.01134609,-0.01173819,0.1018347
-0.06287608,0.05109888,0.08314516,0.99323833,-0.00119842,0.00053263,0.00026632,-0.01140832,-0.01154525,0.10197785
-0.06203942,0.05094811,0.08368571,0.99325335,-0.00093211,0.00133158,-0.00066579,-0.01144567,-0.01159504,0.10197785
-0.06170605,0.05094499,0.08404351,0.99324399,-0.00119842,0.00399474,0.00039947,-0.01163861,-0.01178175,0.10178491
-0.05999635,0.05116003,0.07862934,0.99378091,-0.00079895,0.00093211,0.00013316,-0.01150791,-0.01178798,0.10205875
-0.05945953,0.05146369,0.07467717,0.9941023,0.00066579,0.00359527,0.00066579,-0.01122161,-0.01153903,0.10176001
-0.06025036,0.05146756,0.0753559,0.9940033,-0.00106526,0.00119842,0.00053263,-0.01158882,-0.01165728,0.10197162
-0.06070352,0.05141396,0.07709435,0.99384511,-0.00066579,0.00226369,0.0,-0.01154525,-0.01150168,0.10179113
-0.06089966,0.05118212,0.0777259,0.99379593,-0.00026632,0.0015979,-0.00026632,-0.01127762,-0.0115328,0.10227036
-0.06090219,0.05119564,0.07765972,0.99380022,0.00146474,0.00266316,0.00106526,-0.01146434,-0.01181288,0.10158575
-0.06099584,0.05133083,0.07840957,0.99372864,0.00026632,0.00213053,0.0,-0.01131497,-0.01148923,0.1018098
-0.06186492,0.05129025,0.08157524,0.99342215,0.0,0.00053263,0.00093211,-0.01166973,-0.01191246,0.10210232
-0.06186084,0.0509207,0.08333228,0.99329567,0.00039947,0.00106526,-0.00066579,-0.01127762,-0.01160126,0.10184714
-0.06229392,0.05072922,0.08658288,0.99300027,0.00026632,0.00399474,0.00026632,-0.01158882,-0.01164483,0.10176624
-0.06240274,0.05060172,0.08841266,0.99283868,-0.0015979,0.00319579,-0.00066579,-0.01164483,-0.01180665,0.10194051
-0.05955298,0.05114526,0.07901235,0.99377805,-0.00053263,0.00319579,0.00079895,-0.0115328,-0.01171329,0.10203386
-0.05847236,0.05167888,0.07210685,0.99433941,-0.00026632,0.00199737,0.00026632,-0.01177553,-0.01181288,0.10198407
-0.05870256,0.05174184,0.06945729,0.99451125,-0.00106526,0.0041279,0.00106526,-0.01137721,-0.01159504,0.10224547
-0.05927501,0.05185147,0.06841971,0.99454349,-0.00066579,0.00213053,0.00013316,-0.01167595,-0.01175686,0.10174134
-0.05958102,0.05151481,0.06853668,0.99453467,-0.00026632,0.00146474,-0.00039947,-0.01133986,-0.01156392,0.10202763
-0.06006628,0.05161199,0.06948895,0.99443424,0.00013316,0.00066579,0.00026632,-0.01168217,-0.01176308,0.10175379
-0.06066342,0.05158484,0.07079861,0.9943071,-0.00013316,0.00079895,-0.00093211,-0.01140832,-0.01161371,0.1024882
-0.06098241,0.05132325,0.07372902,0.99408817,0.00199737,0.00386158,-0.00093211,-0.01117804,-0.01165105,0.10197162
-0.06132852,0.05130967,0.07546046,0.99393761,0.00119842,0.00266316,0.0,-0.01152035,-0.01171952,0.10166665
-0.06130265,0.05145466,0.0763734,0.99386197,0.0015979,0.0015979,0.00079895,-0.01151413,-0.01155147,0.10190938
-0.0609557,0.05118364,0.07691978,0.99385512,-0.00026632,0.00173105,0.00026632,-0.01138343,-0.01149546,0.10208987
-0.06046738,0.05121382,0.07548697,0.99399322,-0.00133158,0.00079895,-0.00039947,-0.01143944,-0.01173196,0.10188448
-0.06015316,0.05123017,0.07441547,0.99409229,0.00066579,0.00026632,-0.00066579,-0.01145189,-0.01152035,0.10193428
-0.06038954,0.05133742,0.07447615,0.99406785,0.00053263,0.00266316,-0.00026632,-0.01157637,-0.01180665,0.10201519
-0.06044112,0.0511738,0.07482981,0.99404663,0.00053263,0.00186421,0.00146474,-0.01153903,-0.0117942,0.10178491
-0.06082458,0.05113777,0.07622725,0.99391896,-0.00226369,0.00146474,0.00133158,-0.01139588,-0.01157637,0.10197785
-0.06128928,0.05105691,0.07837421,0.99372745,-0.00119842,0.00213053,0.00066579,-0.01169462,-0.01175686,0.10202763
-0.06124676,0.05119168,0.07912207,0.99366397,0.00133158,0.00106526,0.00066579,-0.01155147,-0.01167595,0.10207742
-0.06077069,0.05114808,0.07799199,0.99378479,-0.00079895,0.00292948,0.00079895,-0.01144567,-0.01169462,0.10203386
-0.06075031,0.05111737,0.07761766,0.99381685,-0.00053263,0.00332895,0.00066579,-0.01133364,-0.01167595,0.10200896
-0.06139382,0.05100721,0.07966787,0.99362075,-0.00039947,0.00226369,0.00133158,-0.01139588,-0.01182532,0.10179735
-0.06138439,0.05108262,0.08081894,0.99352449,0.0,0.00119842,0.00026632,-0.01154525,-0.01155147,0.10161064
-0.06099216,0.0511348,0.08091768,0.99353784,-0.00106526,0.00439422,0.0,-0.01158882,-0.01177553,0.10177868
-0.06094599,0.05110993,0.08090642,0.99354297,-0.00093211,0.0015979,-0.00093211,-0.01140832,-0.01145189,0.10187826
-0.06038899,0.05118256,0.0797955,0.99366307,-0.00066579,0.00199737,0.0,-0.01148923,-0.01158882,0.10225792
-0.06013843,0.05121482,0.07855614,0.99377531,0.0,0.00319579,-0.00039947,-0.01134609,-0.01167595,0.10191561
-0.06063486,0.05141146,0.07865784,0.99372703,-0.00026632,0.00053263,0.00066579,-0.01158882,-0.01175064,0.10195295
-0.06093459,0.05136096,0.07960923,0.99363548,-0.00026632,0.00186421,0.0,-0.0115328,-0.01180665,0.10172889
-0.06081089,0.05122699,0.07886811,0.99370909,-0.00079895,0.00266316,-0.00079895,-0.01139588,-0.01172574,0.10205875
-0.06011698,0.05150604,0.07543164,0.99400365,-0.00079895,0.00506001,0.00053263,-0.01134609,-0.0116884,0.10160442
-0.05995615,0.05139045,0.07353161,0.99416173,0.0,0.00146474,0.00066579,-0.01135231,-0.01140832,0.10198407
-0.06035589,0.05140214,0.07430042,0.99407977,-0.00079895,0.00253,0.00146474,-0.0112465,-0.01156392,0.10194673
-0.06059903,0.05130848,0.07466934,0.9940421,-0.00026632,0.00106526,0.00039947,-0.01140832,-0.01162616,0.10187826
-0.06191373,0.05121094,0.0791868,0.99361646,0.00079895,0.00026632,-0.00039947,-0.01173196,-0.01198092,0.10177246
-0.06251261,0.05111873,0.0823942,0.99332291,0.00119842,0.00173105,-0.00106526,-0.01158882,-0.01158259,0.10211477
-0.06095862,0.05089166,0.07979809,0.99364299,-0.0015979,0.00226369,-0.00106526,-0.01139588,-0.01169462,0.10185337
-0.06022118,0.05106531,0.07657149,0.99393296,-0.00133158,0.00239685,0.00053263,-0.01136476,-0.01147056,0.10211477
-0.06004783,0.05145783,0.07464967,0.99406934,-0.00026632,0.00066579,-0.00066579,-0.01163861,-0.01170707,0.1022268
-0.06013114,0.05155692,0.07357065,0.99413961,-0.00053263,0.00479369,0.0,-0.01153903,-0.01170707,0.10206498
-0.06011719,0.05150333,0.07296918,0.99418753,0.0,0.00319579,0.00026632,-0.01150168,-0.01170707,0.10205875
-0.06038399,0.05164727,0.0726826,0.99418497,-0.00119842,0.00186421,0.00079895,-0.01145811,-0.0115328,0.10197162
-0.06054588,0.05150433,0.0728854,0.99416763,-0.00119842,0.00346211,-0.00079895,-0.01127762,-0.01147056,0.10217079
-0.06180214,0.05151699,0.07642564,0.99382377,0.00013316,0.00306264,-0.00026632,-0.0112465,-0.01178175,0.10224547
-0.06170173,0.05116259,0.07844199,0.99369121,-0.00066579,0.00292948,0.0,-0.01157637,-0.01166973,0.10185337
-0.06035909,0.05150361,0.07430191,0.99407417,-0.00013316,0.00213053,0.00013316,-0.01151413,-0.01148923,0.10189693
-0.05992531,0.05166203,0.07184388,0.99427289,-0.00013316,0.00213053,0.00146474,-0.01162616,-0.01160749,0.10217701
-0.06109483,0.05154267,0.074275,0.99402928,0.00213053,0.00213053,-0.00079895,-0.01137098,-0.01176308,0.10215834
-0.06154813,0.05153931,0.07685985,0.99380493,0.00026632,0.00253,0.0,-0.01133986,-0.01158882,0.10179735
-0.06100354,0.05143446,0.07693157,0.99383837,0.00066579,0.00439422,0.00093211,-0.01151413,-0.01158882,0.10233261
-0.06073042,0.05156944,0.07583775,0.99393213,0.00013316,0.00226369,0.00013316,-0.01149546,-0.01136476,0.10185959
-0.06119695,0.05158204,0.07677672,0.99383074,0.00106526,0.00133158,-0.00119842,-0.01140832,-0.0116635,0.10227659
-0.06204597,0.05146386,0.08076684,0.99346793,-0.00013316,0.0015979,0.00066579,-0.01177553,-0.01194358,0.10171022
-0.06230202,0.05142789,0.08288336,0.99327946,-0.00093211,0.00133158,0.00013316,-0.01167595,-0.0117942,0.10199652
-0.06200597,0.05125506,0.08298964,0.99329799,0.00053263,0.00306264,0.00053263,-0.01148301,-0.01183155,0.10230149
-0.06164187,0.05137705,0.08311491,0.99330389,-0.00026632,0.00066579,-0.00053263,-0.01163861,-0.01161993,0.10186581
-0.05992923,0.05141952,0.078219,0.99380398,0.00013316,0.00213053,-0.00026632,-0.01129629,-0.01143944,0.10207742
-0.05987009,0.05167782,0.07534899,0.99401593,0.0,0.00226369,-0.00066579,-0.01166973,-0.01203693,0.1016791
-0.0605013,0.05170245,0.07662646,0.99387872,-0.00053263,0.00319579,-0.00186421,-0.01121539,-0.01147056,0.10199652
-0.06097145,0.05173123,0.07770231,0.99376494,-0.0015979,0.0041279,0.00066579,-0.01141455,-0.01146434,0.10176624
-0.06052766,0.05173279,0.07543697,0.99396652,-0.00079895,0.00346211,-0.00079895,-0.011427,-0.01178175,0.10161686
-0.05993429,0.05178352,0.07272606,0.99420178,-0.00119842,0.00279632,-0.00013316,-0.01157014,-0.01184399,0.10169155
-0.05991495,0.05195549,0.07153399,0.99428052,-0.00106526,-0.00026632,-0.00039947,-0.01161993,-0.0117942,0.10225169
-0.06005404,0.05182535,0.07122543,0.99430114,0.00079895,0.00199737,0.00093211,-0.01143944,-0.01175064,0.10194051
-0.06024784,0.05182434,0.07094546,0.99430937,0.00039947,0.00119842,-0.00039947,-0.01165105,-0.01174441,0.10215834
-0.06044747,0.0519935,0.07040451,0.99432701,0.0,0.00266316,-0.00133158,-0.01130874,-0.01160126,0.10210855
-0.06057147,0.05186784,0.07039512,0.99432659,-0.00079895,0.00146474,-0.00013316,-0.0115577,-0.01177553,0.10190938
-0.06130822,0.05202976,0.07305481,0.99408108,0.00106526,0.00226369,0.00106526,-0.01135231,-0.01149546,0.10195295
-0.06123557,0.05186538,0.07469988,0.99397194,-0.00119842,0.00346211,0.00079895,-0.0115577,-0.01170085,0.10197785
-0.06081592,0.05151539,0.07519112,0.99397886,0.00079895,0.00292948,-0.00093211,-0.01126518,-0.01157637,0.10187204
-0.0607985,0.05147255,0.07548031,0.9939602,-0.00053263,0.00253,-0.00026632,-0.01129007,-0.01162616,0.1019654
-0.06072688,0.05148878,0.07506518,0.99399525,-0.00119842,0.00292948,0.00053263,-0.01148923,-0.01175686,0.10155462
-0.06075623,0.05161583,0.0746675,0.99401671,0.00119842,0.00026632,-0.00119842,-0.01150791,-0.01155147,0.10216456
-0.06051823,0.05165491,0.07462183,0.99403274,-0.00053263,0.00186421,-0.00039947,-0.0111407,-0.01125895,0.10215212
-0.06066498,0.05172994,0.07468671,0.99401492,0.00013316,0.00306264,0.00106526,-0.01148923,-0.01183155,0.10190938
-0.06063525,0.05163687,0.07435383,0.99404657,-0.00106526,0.00346211,0.00039947,-0.01139588,-0.0115328,0.10265625
-0.0605003,0.05167979,0.07365327,0.99410468,0.00026632,0.00253,-0.00093211,-0.01145811,-0.01157637,0.10229526
-0.06074207,0.05185208,0.0734805,0.99409378,-0.00093211,0.00146474,-0.00013316,-0.01165105,-0.01171952,0.10159197
-0.0611246,0.05176251,0.07501612,0.99396032,-0.00106526,0.00213053,0.00026632,-0.01150791,-0.01162616,0.10203386
-0.06122138,0.05149534,0.07584936,0.99390495,-0.00133158,0.00026632,-0.00066579,-0.01173196,-0.01177553,0.10213967
-0.0609419,0.05151761,0.07601448,0.99390841,0.00013316,0.00186421,0.00013316,-0.0114021,-0.01145811,0.10188448
-0.06118041,0.0514519,0.07610004,0.99389064,-0.00079895,0.00133158,0.00253,-0.01166973,-0.01177553,0.10200274
-0.06032135,0.05147396,0.07411581,0.99409193,-0.00039947,0.00226369,-0.00026632,-0.01157014,-0.0116635,0.10182847
-0.06014692,0.05155424,0.07247256,0.99421948,0.00066579,0.00266316,-0.00013316,-0.01143322,-0.01162616,0.10200896
-0.0613203,0.05156297,0.07533754,0.99393433,0.00079895,0.00106526,0.00093211,-0.0115577,-0.01183155,0.10244463
-0.06239533,0.05146368,0.07984116,0.99352092,0.00053263,0.00319579,-0.00079895,-0.01146434,-0.01148923,0.10220813
-0.06200796,0.05120347,0.08116587,0.99345124,-0.00039947,0.00266316,-0.00079895,-0.01133364,-0.01148301,0.10171644
-0.06129759,0.05131731,0.07985497,0.99359572,0.00039947,0.00266316,0.00026632,-0.01149546,-0.01174441,0.10206498
-0.06126251,0.05130712,0.07948314,0.9936282,0.00186421,0.00199737,-0.00199737,-0.01133986,-0.01170707,0.10175379
-0.06170936,0.05099428,0.08220475,0.99339515,0.00093211,0.00146474,-0.00013316,-0.01148923,-0.01165728,0.10192183
-0.06191188,0.0509828,0.08372767,0.99325597,0.0015979,0.00292948,-0.00079895,-0.01124028,-0.01145811,0.10197785
-0.06001209,0.05130215,0.07707506,0.99389452,0.00093211,0.00239685,0.00013316,-0.01143944,-0.01166973,0.10210232
-0.05944721,0.05155284,0.0732021,0.9942081,0.00026632,0.00213053,-0.00013316,-0.01173819,-0.0115577,0.10174756
-0.06045143,0.05133429,0.07543094,0.99399233,-0.00013316,0.00093211,-0.00199737,-0.01136476,-0.01154525,0.1023824
-0.06125386,0.05138291,0.07764598,0.99377006,-0.00013316,0.0041279,-0.00093211,-0.01145811,-0.01171952,0.10179113
-0.06096307,0.05135401,0.07753254,0.99379832,0.00146474,0.00199737,-0.00039947,-0.01158882,-0.01191246,0.10220813
-0.06086208,0.05135047,0.0764711,0.99388695,0.00053263,0.00039947,0.00026632,-0.01147679,-0.01150791,0.10177868
-0.06035391,0.05142431,0.07490804,0.9940331,-0.00026632,0.00199737,-0.00093211,-0.0115577,-0.0117942,0.10208365
-0.05986936,0.05170334,0.07255855,0.99422222,-0.00119842,0.00279632,0.00013316,-0.01147056,-0.01147056,0.1020961
-0.06019526,0.05160866,0.07215659,0.99423665,0.00013316,0.00146474,-0.00079895,-0.01125895,-0.01152035,0.10207742
-0.06221709,0.05128011,0.07917318,0.99359506,-0.00066579,0.00199737,0.00053263,-0.01145189,-0.01184399,0.10174756
-0.06260894,0.05111682,0.08303642,0.99326336,-0.00053263,0.0015979,-0.00026632,-0.01131497,-0.01181288,0.10188448
-0.06086713,0.05126101,0.07880861,0.99370867,-0.00026632,0.00026632,-0.00079895,-0.01161371,-0.01171952,0.10241974
-0.06046446,0.05155128,0.07635394,0.99390984,-0.00053263,0.00332895,0.00213053,-0.01138965,-0.01175064,0.1018347
-0.06075276,0.0514489,0.0772999,0.99382442,0.00146474,0.00226369,0.00066579,-0.01166973,-0.01150791,0.10204631
-0.06116159,0.05134629,0.07857948,0.99370426,-0.00053263,0.00053263,-0.00079895,-0.0115577,-0.01185022,0.1020712
-0.06120957,0.05126631,0.07965375,0.99361992,0.00013316,0.00319579,-0.00039947,-0.01154525,-0.01160126,0.10206498
-0.06114699,0.05114232,0.08053266,0.9935593,0.00199737,0.00399474,0.00093211,-0.01131497,-0.01149546,0.10210855
-0.06154551,0.05120058,0.08114281,0.99348199,0.00173105,0.00239685,0.00039947,-0.01140832,-0.01176931,0.10220813
-0.06136833,0.05112537,0.08187313,0.99343693,0.00199737,0.00186421,0.00079895,-0.01136476,-0.01146434,0.10208987
-0.06132019,0.05108488,0.08204928,0.99342746,-0.00119842,0.00319579,0.00079895,-0.01151413,-0.01159504,0.10172889
-0.06064999,0.05114968,0.08026177,0.99361128,-0.00053263,0.00053263,-0.00053263,-0.01135231,-0.01158882,0.10213967
-0.06051483,0.05110857,0.07929564,0.99369925,0.00039947,0.00199737,-0.00053263,-0.01137098,-0.01175686,0.10190938
-0.06049052,0.05121984,0.07759094,0.99382955,0.00173105,0.00186421,-0.00013316,-0.01153903,-0.01198714,0.10187204
-0.06044763,0.05139322,0.07656617,0.99390268,-0.00106526,0.00226369,0.00079895,-0.01158882,-0.01168217,0.10176001
-0.06127075,0.05133393,0.0794806,0.99362653,0.00026632,0.00253,0.00039947,-0.01154525,-0.01148301,0.10213967
-0.06192773,0.05135452,0.08222385,0.99336147,0.00026632,0.00292948,0.00146474,-0.01184399,-0.01171952,0.10151728
-0.06201456,0.05101094,0.08455828,0.99317771,0.00026632,0.00279632,-0.00026632,-0.0112714,-0.01157014,0.10245708
-0.06238621,0.0509926,0.08643007,0.99299431,-0.00066579,0.00292948,0.00039947,-0.01161993,-0.01191868,0.10190316
-0.06165309,0.05098322,0.08575926,0.99309868,-0.00066579,0.00039947,-0.00079895,-0.011427,-0.01165728,0.10233883
-0.06050416,0.05116303,0.08199012,0.99347842,-0.00186421,0.00133158,0.00079895,-0.01149546,-0.01169462,0.10188448
-0.06027092,0.05113555,0.07956832,0.99369085,0.00013316,0.00199737,0.00146474,-0.01145811,-0.01180665,0.10199029
-0.05925216,0.05125578,0.07558258,0.99405706,-0.00039947,0.00106526,-0.00079895,-0.01147056,-0.01143322,0.10186581
-0.05939795,0.05155022,0.07336303,0.99419934,0.00013316,0.00279632,0.00106526,-0.01149546,-0.0116884,0.10184714
-0.06022574,0.05142559,0.07495991,0.99403685,0.00039947,0.00066579,0.00119842,-0.01152035,-0.01174441,0.10205253
-0.06071503,0.05128083,0.07582472,0.99394906,-0.00013316,0.0015979,0.00133158,-0.011427,-0.01176308,0.10162931
-0.06139161,0.05119925,0.07776341,0.99376184,0.00066579,0.00292948,-0.00146474,-0.01145811,-0.01156392,0.10205253
-0.06145622,0.0511171,0.07940053,0.99363261,0.00106526,0.00173105,0.00186421,-0.01127762,-0.01158882,0.10202763
-0.06094714,0.05123912,0.07862605,0.99371922,-0.0015979,0.00146474,0.00013316,-0.01165105,-0.01158882,0.10195295
-0.0602942,0.05121566,0.07646161,0.99392927,-0.00146474,0.0015979,-0.00053263,-0.01120916,-0.01163861,0.10195295
-0.06030587,0.0513848,0.07577982,0.99397194,0.0015979,0.00199737,-0.00066579,-0.011427,-0.01151413,0.10223924
-0.06064361,0.05109582,0.07726932,0.9938516,0.0,0.00386158,0.00079895,-0.01136476,-0.01137098,0.10225792
-0.06090887,0.05127412,0.07813863,0.99375826,0.00106526,0.00173105,0.00026632,-0.01147056,-0.0115328,0.10230149
-0.06162383,0.05127809,0.08041227,0.9935326,0.00066579,0.00066579,0.00053263,-0.01164483,-0.01198092,0.10187826
-0.06163457,0.0510845,0.0817844,0.99342984,0.00133158,0.00133158,0.00133158,-0.01146434,-0.01157637,0.10217079
-0.06081231,0.0512252,0.08021037,0.99360168,-0.00106526,0.00199737,-0.00066579,-0.01147679,-0.01150791,0.10203386
-0.06035332,0.05120563,0.07899453,0.9937281,-0.00093211,0.00239685,-0.00066579,-0.0114021,-0.01157014,0.10169777
-0.06058393,0.05129199,0.07880946,0.99372423,0.00133158,0.00186421,-0.00106526,-0.01161993,-0.0118191,0.10213967
-0.06070046,0.05141399,0.07902002,0.99369413,-0.00093211,0.0015979,-0.00026632,-0.01153903,-0.01147679,0.10171644
-0.06083098,0.0511399,0.08005727,0.99361724,0.0015979,0.00226369,-0.00013316,-0.01143322,-0.01151413,0.102121
-0.06124293,0.05109068,0.08169103,0.99346155,-0.00119842,0.00186421,0.00093211,-0.01153903,-0.01163861,0.10205253
-0.06122857,0.05090782,0.08193496,0.9934516,-0.00039947,0.00253,0.00093211,-0.01166973,-0.01172574,0.10225792
-0.06068516,0.05104122,0.08031452,0.99361044,-0.00106526,0.00306264,-0.00026632,-0.01135853,-0.01155147,0.10172889
-0.06063956,0.05121589,0.07962605,0.99365973,-0.00146474,0.00146474,0.00066579,-0.01143322,-0.01149546,0.10213344
-0.06107401,0.05103699,0.08037809,0.99358171,0.00066579,0.00266316,0.0,-0.01128385,-0.01158882,0.10179735
-0.06115491,0.05112027,0.08080932,0.99353749,0.00039947,0.00266316,-0.00119842,-0.01150168,-0.01158259,0.10217701
-0.06075311,0.05099986,0.08038811,0.99360251,0.00053263,0.00173105,0.0,-0.01149546,-0.01140832,0.10200896
-0.06068219,0.05112072,0.08001101,0.99363106,-0.00106526,0.00292948,-0.00013316,-0.01167595,-0.01173819,0.10171022
-0.06073964,0.05149194,0.07923967,0.99367017,0.00079895,0.00106526,-0.00093211,-0.01157014,-0.01157014,0.10152972
-0.06075439,0.05138096,0.07848006,0.99373537,-0.00066579,0.00279632,-0.00053263,-0.01150791,-0.01175064,0.10206498
-0.06101466,0.05147016,0.07905431,0.99366921,-0.00066579,0.00053263,0.00119842,-0.01154525,-0.01158882,0.10167287
-0.06145375,0.05135033,0.08049536,0.99353266,-0.00026632,0.00386158,-0.00093211,-0.01130252,-0.01157014,0.10236372
-0.06135472,0.05118522,0.0810046,0.9935059,-0.00053263,0.00253,0.00053263,-0.0114021,-0.01171952,0.10217701
-0.06087176,0.05104324,0.08006798,0.99361879,-0.00026632,0.00186421,0.00013316,-0.01174441,-0.01158882,0.10184092
-0.06083569,0.05125722,0.07958481,0.99364883,-0.00013316,0.00106526,-0.00039947,-0.01129007,-0.01158882,0.1022268
-0.0596144,0.05127357,0.07538613,0.99404937,0.00013316,0.00346211,-0.00026632,-0.01147679,-0.01155147,0.10204008
-0.0595527,0.05150152,0.07306451,0.99421459,0.00093211,0.00332895,0.00039947,-0.01164483,-0.01184399,0.10189693
-0.06086273,0.05157408,0.07610479,0.99390346,-0.0015979,0.00266316,0.00053263,-0.01143322,-0.01173819,0.10227659
-0.06154058,0.05146886,0.0778067,0.99373537,0.00066579,0.00079895,0.0,-0.01135853,-0.0114021,0.10190938
-0.06098804,0.05131261,0.07670133,0.9938634,-0.00039947,0.00213053,0.0015979,-0.01154525,-0.01172574,0.10167287
-0.06066421,0.05155173,0.07529476,0.99397838,0.00053263,0.00106526,0.00053263,-0.01154525,-0.01165728,0.10168532
-0.06133632,0.05152934,0.07749023,0.99376953,-0.00079895,0.0015979,0.00106526,-0.01158882,-0.01178798,0.10219568
-0.06234008,0.05141479,0.08167385,0.99337786,0.00119842,0.00226369,-0.00066579,-0.01153903,-0.01204938,0.10190316
-0.06156689,0.05117919,0.08153328,0.99344987,-0.00119842,0.00239685,0.00226369,-0.01148923,-0.01167595,0.1022268
-0.06005905,0.0516224,0.07548442,0.9939971,0.00106526,0.00253,0.00079895,-0.01143322,-0.01157014,0.10200896
-0.05949771,0.05153536,0.07233778,0.99426937,-0.00106526,0.00239685,0.00013316,-0.01130252,-0.01160749,0.10178491
-0.05992246,0.0515672,0.07176019,0.99428403,0.00133158,0.00013316,0.00013316,-0.01125895,-0.01168217,0.10204631
-0.06008389,0.05156021,0.07142275,0.99429893,-0.00079895,0.00106526,0.00066579,-0.01148301,-0.01184399,0.10205875
-0.0629105,0.05113091,0.08150377,0.99337053,-0.00039947,0.0041279,0.00039947,-0.0111407,-0.01134609,0.10211477
-0.06354576,0.05070913,0.08707961,0.9928785,0.00133158,0.00239685,0.00039947,-0.01149546,-0.01172574,0.10184092
-0.06124562,0.05095098,0.08206197,0.99343789,-0.00106526,0.00199737,0.00066579,-0.01136476,-0.01170707,0.10190938
-0.05993488,0.05104579,0.07744171,0.99388379,0.0,0.00239685,-0.00053263,-0.01135231,-0.01145189,0.10190316
-0.06051289,0.05101984,0.077912,0.99381334,-0.00013316,0.00253,0.00013316,-0.01130874,-0.0115577,0.10214589
-0.06157257,0.05106999,0.08028594,0.99355668,-0.00039947,0.00106526,0.00026632,-0.01154525,-0.01214274,0.1022268
-0.06153888,0.05107848,0.08103036,0.99349797,-0.00053263,0.00146474,0.00106526,-0.01137098,-0.01163238,0.10208987
-0.06131138,0.05105307,0.08063085,0.99354577,-0.00093211,0.00306264,-0.00093211,-0.01163861,-0.01161371,0.10201519
-0.06102408,0.05135667,0.07942898,0.9936446,0.00079895,0.00173105,0.00066579,-0.01167595,-0.0118191,0.10197162
-0.05983531,0.05163647,0.07430138,0.99409896,-0.00039947,0.00213053,-0.00013316,-0.01172574,-0.01188134,0.10186581
-0.05944917,0.05196132,0.0712962,0.99432534,0.0,0.00239685,0.00053263,-0.01165105,-0.01166973,0.1018098
-0.0608155,0.05164583,0.07469474,0.99400955,-0.00013316,0.00119842,0.0015979,-0.01141455,-0.01172574,0.10185337
